time,ax,ay,az,aT
0.002,-0.5871,0.1043,0.4376,0.74
0.002,-0.5681,-0.0003,0.4073,0.699
0.002,-0.5252,-0.0204,0.4367,0.683
0.003,-0.4967,-0.0448,0.4636,0.681
0.005,-0.4629,-0.0406,0.4042,0.616
0.009,-0.4253,-0.0461,0.3282,0.539
0.014,-0.3954,-0.035,0.3551,0.533
0.02,-0.3759,-0.0245,0.4631,0.597
0.025,-0.475,0.0234,0.5422,0.721
0.03,-0.5665,0.1033,0.5446,0.793
0.04,-0.5311,0.1503,0.5181,0.757
0.04,-0.434,0.1977,0.5966,0.764
0.044,-0.3621,0.2643,0.6915,0.824
0.048,-0.2976,0.3425,0.7214,0.852
0.058,-0.1452,0.3752,0.61,0.731
0.059,0.0925,0.3984,0.4246,0.59
0.064,0.3144,0.4365,0.1438,0.557
0.068,0.3698,0.4805,0.0023,0.606
0.073,0.3885,0.5566,-0.1126,0.688
0.078,0.4112,0.55,-0.0811,0.692
0.083,0.3194,0.5331,0.1059,0.63
0.088,0.2194,0.4777,0.4268,0.677
0.092,0.1138,0.4104,0.5922,0.729
0.097,0.0345,0.2979,0.4207,0.517
0.105,0.2071,0.1794,-0.042,0.277
0.107,0.1936,0.035,-0.1548,0.25
0.112,-0.1035,-0.0364,-0.0187,0.111
0.117,0.0688,-0.064,0.0865,0.128
0.121,0.2342,0.0195,0.1775,0.295
0.126,0.0621,0.1251,0.2759,0.309
0.131,0.0635,0.1661,0.2503,0.307
0.137,0.4311,0.1085,0.0719,0.45
0.141,0.9306,0.038,0.0588,0.933
0.147,1.3302,-0.1178,0.385,1.39
0.151,1.9808,-0.4079,0.8993,2.213
0.156,2.1789,-0.6657,1.2932,2.62
0.16,1.8246,-0.4543,1.1103,2.184
0.165,1.76,0.0188,0.8655,1.961
0.17,2.1714,0.4293,0.6042,2.294
0.174,2.725,0.7401,0.3409,2.844
0.179,2.9131,1.06,0.2335,3.109
0.186,2.5683,1.4184,0.258,2.945
0.189,1.8486,1.7226,0.5121,2.578
0.194,1.3293,1.7238,0.7592,2.305
0.199,1.0907,1.42,0.7007,1.923
0.205,1.3515,0.857,0.5497,1.692
0.209,1.4874,0.6015,0.3662,1.646
0.213,1.2984,0.87,0.6927,1.71
0.221,1.0449,1.5836,1.4588,2.393
0.223,0.5969,1.4559,1.5241,2.191
0.228,0.7921,0.8944,0.4883,1.291
0.234,0.3156,0.2669,-0.2872,0.503
0.238,-1.0357,-0.1447,0.0962,1.05
0.244,-1.5594,-0.3674,0.702,1.749
0.248,-1.2064,-0.2615,0.7624,1.451
0.253,-0.7495,-0.025,0.882,1.158
0.258,-0.6633,0.2384,0.8068,1.071
0.262,-0.7653,0.466,0.5252,1.039
0.268,-0.9819,0.6278,0.3909,1.229
0.272,-1.3619,0.6958,0.5952,1.641
0.276,-1.5755,0.6658,0.813,1.894
0.281,-1.5032,0.5163,0.9368,1.845
0.286,-1.1609,0.2831,1.0531,1.593
0.291,-0.7658,-0.013,1.0639,1.311
0.295,-0.4071,-0.3133,0.9599,1.089
0.305,-0.1874,-0.4871,0.698,0.871
0.306,-0.1587,-0.456,0.5746,0.751
0.31,-0.3034,-0.3353,0.7281,0.857
0.315,-0.3588,-0.1928,1.0792,1.154
0.32,-0.1654,-0.1681,1.2382,1.26
0.325,0.2858,-0.252,1.033,1.101
0.33,0.7771,-0.3936,0.7415,1.144
0.336,1.0775,-0.4896,0.4975,1.284
0.339,0.9776,-0.408,0.2987,1.101
0.344,0.6513,-0.1842,0.0923,0.683
0.353,0.3627,0.0734,-0.0858,0.38
0.353,-0.0366,0.2467,-0.0443,0.253
0.359,-0.5367,0.2513,0.241,0.64
0.363,-0.7431,0.1552,0.2825,0.81
0.368,-0.6248,0.0237,-0.0218,0.626
0.373,-0.4932,-0.027,-0.3537,0.607
0.378,-0.4337,0.0127,-0.5458,0.697
0.383,-0.4955,0.1209,-0.4814,0.701
0.388,-0.651,0.2037,-0.2136,0.715
0.392,-0.5914,0.2241,-0.0105,0.632
0.398,-0.185,0.1147,-0.0632,0.227
0.405,0.1789,0.0262,-0.2257,0.289
0.407,0.278,-0.0097,-0.2732,0.39
0.412,0.1865,0.0378,-0.3278,0.379
0.417,-0.0753,0.1378,-0.2508,0.296
0.422,-0.1582,0.2207,-0.0377,0.274
0.427,-0.1319,0.1929,0.1106,0.259
0.431,-0.0782,0.0542,0.2898,0.305
0.437,0.2917,-0.1748,0.3923,0.519
0.441,0.4209,-0.3127,0.1648,0.55
0.446,-0.0196,-0.2974,-0.0124,0.298
0.451,-0.3326,-0.1171,0.0661,0.359
0.456,-0.3998,0.0029,0.0799,0.408
0.46,-0.4805,0.0273,0.1246,0.497
0.468,-0.4963,-0.0009,0.1527,0.519
0.48,-0.5189,0.0355,0.2309,0.569
0.483,-0.307,0.0143,0.3807,0.489
0.485,-0.0211,-0.0071,0.301,0.302
0.489,0.0763,-0.0025,0.1878,0.203
0.49,-0.0611,0.0332,0.2372,0.247
0.495,-0.2321,0.0897,0.4441,0.509
0.499,-0.3946,0.0784,0.6267,0.745
0.511,-0.4084,0.0108,0.6608,0.777
0.512,-0.2863,-0.0486,0.4319,0.521
0.515,-0.273,-0.0393,0.1461,0.312
0.541,-0.3942,0.0514,0.0711,0.404
0.542,-0.559,0.1759,0.2162,0.625
0.542,-0.6,0.1998,0.4329,0.766
0.543,-0.472,0.1296,0.4677,0.677
0.543,-0.3419,0.0179,0.3949,0.523
0.543,-0.2856,-0.0589,0.3126,0.427
0.548,-0.3196,-0.0602,0.2756,0.426
0.554,-0.3573,-0.0004,0.272,0.449
0.558,-0.3197,0.0965,0.2826,0.438
0.563,-0.2714,0.1686,0.329,0.459
0.569,-0.1489,0.1919,0.3943,0.463
0.573,-0.0504,0.2022,0.3927,0.445
0.577,-0.0381,0.2236,0.3479,0.415
0.582,-0.1379,0.2583,0.3223,0.435
0.588,-0.2403,0.2776,0.3063,0.478
0.592,-0.2164,0.2767,0.3523,0.498
0.597,-0.1557,0.2221,0.3816,0.468
0.612,-0.1086,0.1832,0.4012,0.454
0.612,-0.106,0.1265,0.3348,0.373
0.613,-0.0998,0.1,0.2588,0.295
0.616,-0.0992,0.1564,0.159,0.244
0.632,-0.1152,0.2192,0.0354,0.25
0.633,-0.0926,0.3248,-0.0522,0.342
0.633,-0.0314,0.4306,-0.0846,0.44
0.64,0.0444,0.4653,-0.0093,0.468
0.64,0.106,0.4458,0.1115,0.472
0.645,0.1602,0.4174,0.1653,0.477
0.649,0.1734,0.4112,0.0782,0.453
0.655,0.1413,0.408,-0.0589,0.436
0.659,0.0692,0.47,-0.1695,0.504
0.663,-0.0382,0.4444,-0.2128,0.494
0.67,-0.1548,0.3743,-0.1627,0.437
0.674,-0.1539,0.3215,-0.0361,0.358
0.679,-0.0897,0.3216,-0.0004,0.334
0.685,-0.1086,0.2739,-0.0292,0.296
0.691,-0.0642,0.2095,0.0352,0.222
0.695,0.0085,0.159,0.1593,0.225
0.698,0.0591,0.1673,0.2186,0.282
0.723,0.1981,0.1886,0.2466,0.368
0.724,0.3583,0.1651,0.3008,0.496
0.725,0.4276,0.1327,0.3667,0.579
0.725,0.3438,0.1582,0.2602,0.459
0.725,0.3123,0.2224,0.0247,0.384
0.729,0.3032,0.2973,-0.2991,0.519
0.733,-0.1265,0.241,-0.3715,0.461
0.75,-0.3739,0.1736,-0.2979,0.509
0.751,-0.2697,0.1766,-0.2698,0.42
0.752,0.0177,0.2312,-0.2918,0.373
0.752,0.2473,0.2848,-0.2994,0.482
0.756,0.2881,0.321,-0.2972,0.524
0.761,0.22,0.3134,-0.2233,0.443
0.766,0.144,0.3336,-0.1277,0.385
0.772,0.0122,0.3979,-0.0872,0.408
0.776,-0.092,0.4081,-0.1184,0.435
0.781,-0.0849,0.369,-0.1017,0.392
0.787,0.0454,0.2401,-0.0442,0.248
0.791,0.129,0.141,0.0299,0.193
0.795,0.049,0.093,0.0921,0.14
0.8,-0.12,0.0505,0.1877,0.228
0.806,-0.3033,0.0103,0.3238,0.444
0.81,-0.403,-0.0617,0.3425,0.533
0.815,-0.431,-0.1395,0.2895,0.538
0.832,-0.3628,-0.2207,0.2197,0.478
0.833,-0.2249,-0.2647,0.1833,0.393
0.833,-0.0222,-0.2907,0.2496,0.384
0.872,0.1041,-0.287,0.3373,0.455
0.874,0.1658,-0.2154,0.4271,0.506
0.875,0.1244,-0.0691,0.464,0.485
0.875,-0.0439,0.0944,0.4123,0.425
0.876,-0.1909,0.2607,0.3558,0.481
0.876,-0.1848,0.4328,0.261,0.538
0.877,-0.1934,0.587,0.1424,0.634
0.877,-0.2049,0.7216,-0.0454,0.751
0.878,-0.207,0.7514,-0.1899,0.802
0.878,-0.2787,0.7252,-0.2982,0.832
0.883,-0.2581,0.6199,-0.399,0.781
0.888,-0.1288,0.4052,-0.411,0.591
0.893,0.0617,0.1919,-0.3319,0.388
0.897,0.1177,0.0441,-0.1594,0.203
0.912,-0.039,0.0085,-0.0394,0.056
0.913,-0.1713,0.0551,0.0757,0.195
0.913,-0.1783,0.0466,0.1356,0.229
0.916,-0.055,-0.0084,0.1811,0.19
0.937,0.0335,-0.1363,0.2432,0.281
0.937,0.0948,-0.1959,0.2764,0.352
0.938,0.1532,-0.1561,0.319,0.387
0.938,0.2012,-0.0597,0.3304,0.391
0.94,0.2547,0.0907,0.4063,0.488
0.945,0.2197,0.2186,0.4486,0.545
0.95,0.1173,0.3142,0.3592,0.491
0.955,0.053,0.3661,0.2485,0.446
0.96,-0.0395,0.3557,0.1546,0.39
0.964,-0.1074,0.3293,0.0298,0.348
0.971,-0.1704,0.3446,-0.1139,0.401
0.975,-0.179,0.2973,-0.2453,0.425
0.979,-0.0619,0.2192,-0.2711,0.354
0.985,0.0201,0.1084,-0.2752,0.296
0.99,-0.0354,0.106,-0.2287,0.255
0.995,-0.1728,0.1442,-0.1845,0.291
1,-0.2886,0.1532,-0.164,0.366
1.014,-0.2295,0.0634,-0.2127,0.319
1.014,-0.1434,-0.0252,-0.1657,0.221
1.015,-0.0926,-0.0579,-0.1378,0.176
1.042,-0.053,-0.0158,-0.1193,0.132
1.042,0.018,0.0246,-0.0674,0.074
1.043,0.0054,0.0485,-0.0632,0.08
1.043,0.012,0.051,-0.0734,0.09
1.043,0.0329,0.0007,-0.0309,0.045
1.044,0.123,-0.0448,0.0378,0.136
1.047,0.2631,-0.0836,0.1064,0.296
1.054,0.2433,-0.0703,0.1534,0.296
1.059,0.105,-0.0387,0.1429,0.181
1.061,0.049,-0.0147,0.1825,0.19
1.067,0.0104,-0.051,0.1624,0.17
1.072,-0.0086,-0.0778,0.1278,0.15
1.077,-0.1085,-0.0928,0.1244,0.189
1.081,-0.1528,-0.0551,0.133,0.21
1.089,-0.0817,-0.0412,0.1058,0.14
1.092,-0.0412,-0.1323,0.0953,0.168
1.096,-0.0477,-0.2088,0.1685,0.272
1.101,-0.0703,-0.2518,0.2201,0.342
1.108,-0.1236,-0.2639,0.3385,0.447
1.11,-0.0524,-0.2384,0.4567,0.518
1.115,0.0806,-0.188,0.5388,0.576
1.129,0.1776,-0.1154,0.5418,0.582
1.129,0.2129,-0.0279,0.5039,0.548
1.13,0.2155,0.0316,0.504,0.549
1.138,0.2876,0.0632,0.5351,0.611
1.16,0.3545,0.1175,0.5444,0.66
1.161,0.3801,0.2304,0.5321,0.693
1.161,0.4599,0.1819,0.4313,0.656
1.162,0.1024,0.152,0.1441,0.233
1.162,-0.1678,0.3157,0.2612,0.443
1.163,-0.2206,0.4124,0.402,0.617
1.171,-0.2105,0.347,0.2464,0.475
1.176,-0.1068,0.2658,0.0697,0.295
1.178,-0.0119,0.2791,0.0702,0.288
1.183,0.0508,0.3341,0.1712,0.379
1.189,0.118,0.3349,0.2722,0.447
1.193,0.1211,0.2714,0.3851,0.486
1.197,0.144,0.2199,0.45,0.521
1.213,0.1461,0.2015,0.4765,0.538
1.213,0.1272,0.168,0.5292,0.57
1.214,0.1899,0.1721,0.5937,0.647
1.24,0.2362,0.2088,0.5504,0.634
1.241,0.2,0.2399,0.4521,0.549
1.241,0.1917,0.2396,0.4398,0.536
1.241,0.2922,0.2415,0.4682,0.602
1.242,0.3739,0.291,0.4965,0.686
1.242,0.3195,0.3617,0.4602,0.667
1.246,0.3349,0.353,0.431,0.65
1.251,0.6241,0.2675,0.0266,0.68
1.256,-0.3953,0.5977,0.8128,1.084
1.265,-0.1875,0.4893,0.8571,1.005
1.265,0.1492,0.2564,0.2656,0.398
1.27,0.1743,0.1104,0.1052,0.232
1.276,0.0562,0.1755,0.3321,0.38
1.279,-0.0836,0.3004,0.4345,0.535
1.284,-0.1162,0.3052,0.3743,0.497
1.289,-0.0845,0.1997,0.3308,0.396
1.294,0.0021,0.1275,0.2826,0.31
1.299,0.0458,0.0981,0.3275,0.345
1.307,0.0322,0.0947,0.3509,0.365
1.308,0.0878,0.1099,0.3741,0.4
1.313,0.1264,0.1312,0.3877,0.428
1.318,0.1793,0.1704,0.4082,0.477
1.323,0.1963,0.2201,0.419,0.512
1.328,0.1634,0.3141,0.3292,0.483
1.332,0.0952,0.3572,0.2013,0.421
1.338,0.0226,0.4076,0.1332,0.429
1.342,0.0002,0.4038,0.0869,0.413
1.347,-0.0179,0.4011,0.0527,0.405
1.353,-0.0341,0.3617,0.0809,0.372
1.357,-0.0268,0.338,0.0902,0.351
1.361,0.0018,0.3203,0.1091,0.338
1.366,0.0063,0.2866,0.1496,0.323
1.372,-0.0344,0.2414,0.1519,0.287
1.376,-0.0819,0.1844,0.1566,0.255
1.381,-0.1102,0.1227,0.1373,0.215
1.386,-0.0696,0.087,0.1253,0.168
1.391,-0.0461,0.0678,0.1132,0.14
1.395,-0.0109,0.0648,0.1488,0.163
1.4,0.0239,0.0945,0.1581,0.186
1.405,0.0537,0.1809,0.0835,0.206
1.41,0.0352,0.2356,-0.0052,0.238
1.415,-0.0197,0.2829,-0.0414,0.287
1.423,-0.0564,0.3397,-0.1133,0.362
1.425,-0.037,0.3534,-0.1875,0.402
1.43,-0.017,0.3171,-0.173,0.362
1.435,-0.023,0.2739,-0.1084,0.295
1.439,-0.6406,0.3934,0.1426,0.765
1.444,0.4332,0.1802,-0.2375,0.526
1.449,0.2548,0.1967,-0.7151,0.784
1.454,-0.0043,0.3352,-0.5635,0.656
1.459,-0.1136,0.3993,-0.2352,0.477
1.463,-0.1342,0.4481,-0.2085,0.512
1.468,-0.1899,0.4866,-0.2846,0.595
1.473,-0.1633,0.4717,-0.4227,0.654
1.478,-0.1277,0.4014,-0.4316,0.603
1.483,-0.1522,0.3236,-0.4595,0.582
1.488,-0.0001,0.2239,-0.2485,0.334
1.493,-0.1507,0.2459,-0.3148,0.427
1.497,-0.2192,0.2824,-0.3642,0.51
1.503,-0.2115,0.3481,-0.3176,0.517
1.507,-0.2214,0.4307,-0.2972,0.568
1.511,-0.1817,0.5301,-0.3768,0.675
1.516,-0.1276,0.5818,-0.4632,0.755
1.523,-0.1371,0.6122,-0.4942,0.799
1.526,-0.1388,0.6046,-0.5106,0.803
1.531,-0.0206,0.578,-0.5219,0.779
1.54,0.0787,0.5371,-0.5041,0.741
1.541,0.2024,0.5057,-0.5314,0.761
1.546,0.3666,0.4978,-0.5464,0.825
1.55,0.4352,0.5013,-0.5132,0.839
1.556,0.475,0.5232,-0.4509,0.838
1.561,0.3811,0.5611,-0.4313,0.804
1.565,0.2795,0.6123,-0.4351,0.801
1.572,0.1416,0.6842,-0.5218,0.872
1.575,0.0338,0.7676,-0.6531,1.008
1.58,0.1497,0.7792,-0.64,1.019
1.586,0.4241,0.76,-0.4729,0.99
1.59,0.5707,0.7499,-0.25,0.975
1.595,0.629,0.8007,-0.1127,1.024
1.599,0.5816,0.8756,-0.0325,1.052
1.608,0.4812,0.8998,0.0362,1.021
1.609,0.417,0.8801,0.0191,0.974
1.614,0.4196,0.8502,-0.0096,0.948
1.618,0.4224,0.7963,0.0578,0.903
1.624,0.5815,0.7972,0.0518,0.988
1.631,0.4673,0.9083,-0.2571,1.053
1.633,0.0357,1.097,-0.4239,1.177
1.638,0.0225,1.0841,-0.2217,1.107
1.645,0.1321,0.8581,-0.0927,0.873
1.647,0.1855,0.5552,-0.0865,0.592
1.653,0.1375,0.3596,-0.1097,0.4
1.657,-0.0386,0.3739,-0.1428,0.402
1.662,-0.1896,0.4687,-0.1428,0.525
1.667,-0.2898,0.5,-0.0257,0.578
1.672,-0.1919,0.3742,0.1362,0.442
1.677,-0.0334,0.2249,0.2661,0.35
1.681,0.197,0.2028,0.3923,0.484
1.686,0.566,0.2663,0.596,0.864
1.691,0.9916,0.4795,0.8765,1.408
1.696,1.3291,0.6792,1.0445,1.822
1.701,1.5066,0.7558,1.0922,2.008
1.706,1.5532,0.7136,1.0505,2.006
1.711,1.4148,0.6306,0.9982,1.843
1.716,1.1672,0.6078,0.9569,1.627
1.727,0.9577,0.6393,0.7956,1.4
1.775,0.829,0.7065,0.6182,1.252
1.775,0.7568,0.7536,0.6207,1.235
1.775,0.6594,0.8054,0.7241,1.268
1.775,0.6087,0.8171,0.8278,1.313
1.775,0.4267,0.8645,0.8367,1.277
1.775,0.3695,0.7903,0.7291,1.137
1.776,0.3246,0.7235,0.5339,0.956
1.776,0.3425,0.6137,0.4662,0.843
1.776,0.3564,0.4606,0.559,0.807
1.776,0.339,0.3631,0.7218,0.876
1.778,0.3624,0.3014,0.9808,1.088
1.779,0.2773,0.2024,1.1621,1.212
1.785,0.1589,0.07,1.1446,1.158
1.789,0.2253,-0.1366,1.1126,1.143
1.793,0.4326,-0.2576,1.137,1.243
1.798,0.6753,-0.2986,1.2141,1.421
1.804,0.8485,-0.1978,1.3137,1.576
1.807,0.8088,-0.2076,1.4288,1.655
1.812,0.5448,-0.2272,1.4182,1.536
1.817,0.0824,0.2895,0.7375,0.797
1.822,1.0304,-1.1197,1.3934,2.063
1.827,0.1343,-0.86,1.0386,1.355
1.832,0.3336,-0.6111,1.0384,1.25
1.838,0.4817,-0.6329,1.2075,1.446
1.842,0.3899,-0.791,1.3952,1.651
1.846,0.1019,-0.9048,1.4189,1.686
1.852,0.0473,-1.066,1.2461,1.641
1.856,-0.0539,-1.1306,0.9965,1.508
1.861,-0.1427,-1.2383,0.9102,1.543
1.866,-0.1677,-1.2992,0.927,1.605
1.87,-0.2215,-1.3889,0.9935,1.722
1.875,-0.231,-1.3848,0.9189,1.678
1.88,-0.233,-1.4868,0.8807,1.744
1.885,-0.4337,-1.3174,0.6899,1.549
1.89,-0.5076,-1.1497,0.478,1.345
1.894,-10.352,11.2539,-6.7146,16.7
1.899,0.7558,2.8094,-3.5871,4.619
1.904,-2.4017,-0.6799,-2.6335,3.628
1.909,-6.2077,2.2293,-3.6543,7.541
1.914,-4.7462,1.0667,-1.5414,5.103
1.92,-6.9358,5.557,-3.3073,9.483
1.924,-8.0503,8.4143,-4.6711,12.547
1.929,-4.5734,5.322,-4.8506,8.53
1.934,-4.1402,3.1247,-4.5311,6.887
1.94,-4.6468,2.8902,-4.2516,6.93
1.943,-5.7292,4.389,-4.111,8.306
1.948,-4.5876,4.1236,-4.1299,7.423
1.953,-3.8234,3.9875,-2.5383,6.08
1.959,-3.553,3.3213,-2.4709,5.455
1.963,-4.2518,3.2987,-4.0784,6.752
1.969,-2.419,3.4656,-1.8602,4.618
1.972,-0.7939,1.8908,-3.2443,3.838
1.978,0.7798,-1.4471,-3.422,3.796
1.982,1.6155,0.3591,-0.4905,1.726
1.988,14.1409,-8.2577,0.3366,16.379
1.992,-7.3233,4.5498,3.3504,9.25
1.998,23.7076,-16.6101,1.7242,28.999
2.002,5.6919,-8.9533,8.0195,13.299
2.007,0.8329,0.1334,14.6863,14.71
2.011,5.6708,-2.2397,9.025,10.891
2.016,8.9846,-7.1568,3.3946,11.978
2.021,9.0333,-8.5346,1.6039,12.53
2.029,8.037,-7.9846,2.9278,11.701
2.03,-8.6983,2.625,0.3583,9.093
2.035,1.171,6.2591,-0.3333,6.376
2.055,4.265,-1.1311,1.0881,4.545
2.056,1.9823,-5.5154,-2.1393,6.239
2.056,-3.3891,-0.6964,-3.5477,4.956
2.056,-3.7681,3.2255,-3.4729,6.055
2.06,-1.7182,1.8978,0.6534,2.642
2.065,2.5198,0.5507,0.783,2.695
2.069,-1.7272,1.1963,-0.2554,2.117
2.075,-1.3195,0.3001,-3.011,3.301
2.079,6.275,-4.1245,2.5601,7.934
2.084,-7.0058,4.2405,-2.7411,8.636
2.089,0.7418,1.0918,1.5731,2.054
2.093,3.9172,-2.3818,1.6777,4.882
2.099,4.6866,-1.4836,0.4821,4.939
2.103,14.4701,-11.4556,2.7122,18.654
2.108,2.4434,-3.6136,4.9369,6.588
2.113,0.4495,2.4352,8.3719,8.73
2.118,3.8381,1.053,5.449,6.748
2.123,5.5486,-2.5189,0.7344,6.138
2.127,4.8913,-4.8289,-1.4807,7.031
2.132,3.63,-4.8882,-0.7539,6.135
2.137,2.9611,-3.4041,1.7673,4.846
2.143,2.6059,-1.6153,3.6326,4.753
2.148,2.303,-0.873,3.7012,4.446
2.152,1.8805,-1.1844,2.1991,3.126
2.157,1.0982,-1.623,0.5256,2.029
2.162,0.398,-1.7179,-0.4811,1.828
2.167,-0.2014,-1.4957,-0.6182,1.631
2.171,-0.6026,-1.1265,-0.1563,1.287
2.176,-0.8792,-0.794,0.2932,1.22
2.181,-4.6972,2.0494,-0.4888,5.148
2.186,-0.4871,1.6524,0.4624,1.784
2.192,2.4339,-3.7609,-0.492,4.507
2.198,-0.4663,-3.194,-0.5123,3.268
2.201,-1.3084,-0.8791,1.0444,1.891
2.206,-0.9009,0.4783,1.5652,1.868
2.21,0.1299,0.0135,0.7549,0.766
2.215,0.4439,-0.0461,0.2242,0.499
2.22,-0.1064,-0.5278,-0.3421,0.638
2.225,0.177,-1.2409,-0.487,1.345
2.229,0.3505,-1.4736,0.1419,1.521
2.235,0.0633,-1.1578,0.134,1.167
2.239,-0.1365,-0.8496,-0.0143,0.861
2.244,-0.5113,-0.5209,-0.2984,0.789
2.249,-0.6916,-0.5742,-0.3454,0.963
2.253,-0.8133,-1.0561,-0.1615,1.343
2.258,-1.2424,-1.2342,-0.1318,1.756
2.263,-1.3735,-1.2269,-0.0456,1.842
2.268,-1.3225,-1.1898,0.1601,1.786
2.273,-1.0328,-1.1486,0.559,1.643
2.279,-0.8038,-1.0244,0.6063,1.436
2.282,-0.5255,-1.0105,0.7229,1.349
2.287,-0.4356,-1.0919,0.7701,1.405
2.292,-1.032,-1.0268,0.3669,1.501
2.297,-0.934,-1.2865,0.0379,1.59
2.301,-0.9641,-0.9979,-0.1036,1.391
2.306,-0.6947,-0.9365,-0.3597,1.22
2.311,-0.2842,-1.0123,-0.153,1.063
2.316,-0.6945,-0.7765,-0.4988,1.155
2.321,-0.3163,-0.9057,0.0083,0.959
2.326,-0.6419,-0.6281,-0.5919,1.076
2.331,0.7184,-0.9977,-0.9205,1.536
2.336,-0.2496,-0.6948,-2.134,2.258
2.341,-0.6788,-0.701,-0.9002,1.328
2.349,-0.8198,-0.5148,0.2492,1
2.35,-0.2996,-0.2161,0.9099,0.982
2.356,0.0742,0.0014,0.9301,0.933
2.36,-0.5175,0.4622,0.1934,0.72
2.366,-0.9074,0.7463,-0.5333,1.29
2.369,-1.3409,0.4317,-0.7858,1.613
2.375,-1.7627,0.44,-0.7663,1.972
2.379,-2.2424,0.2549,-1.2392,2.575
2.384,-1.1983,0.2877,-1.013,1.595
2.389,-0.3835,0.9448,-1.2027,1.577
2.393,-1.0138,1.5609,-1.792,2.584
2.399,-1.2135,1.4143,-1.1991,2.216
2.403,-1.0797,0.8306,-0.0202,1.362
2.408,-1.0852,0.5341,0.2471,1.235
2.413,-1.1614,0.6319,-0.2563,1.347
2.418,-0.8583,0.904,-0.4668,1.331
2.423,-0.8335,1.1824,-0.485,1.526
2.428,-0.9475,1.2279,-0.6006,1.663
2.434,-0.9722,1.206,-0.5219,1.635
2.439,-1.0094,1.2076,-0.3611,1.615
2.443,-1.1479,1.2042,-0.3166,1.694
2.447,-1.2347,1.3847,-0.3003,1.879
2.452,-1.3061,1.5581,-0.3884,2.07
2.457,-1.3546,1.7956,-0.7934,2.385
2.464,-2.3256,2.4126,-3.0919,4.559
2.469,-1.7742,2.3282,-3.6002,4.64
2.474,-0.5459,1.4668,1.6216,2.254
2.478,-1.5632,1.1445,1.8146,2.654
2.483,-1.5914,1.1576,0.8135,2.129
2.487,-1.3374,1.5282,-0.3827,2.067
2.493,-1.2958,1.9693,-0.6162,2.437
2.499,-1.0327,2.0976,0.3662,2.367
2.501,-0.953,2.0845,0.0771,2.293
2.506,-1.074,1.8896,-0.0344,2.174
2.513,-1.2751,1.7575,-0.0147,2.171
2.518,-1.2221,1.7983,0.041,2.175
2.523,-1.0226,1.8852,0.3426,2.172
2.527,-0.9251,1.9101,0.6728,2.226
2.532,-0.8962,1.7581,0.8081,2.132
2.535,-1.071,1.5423,0.4445,1.93
2.54,-1.339,1.5333,0.0035,2.036
2.545,-1.566,1.6813,-0.2384,2.31
2.55,-1.7838,1.869,-0.4268,2.619
2.555,-1.9657,1.908,0.5056,2.786
2.56,-2.165,1.4907,-0.1886,2.635
2.565,-1.9027,1.6322,-0.5412,2.565
2.569,-1.8161,2.179,-0.0584,2.837
2.574,-1.8623,2.5351,1.1584,3.352
2.58,-1.6394,2.7141,1.798,3.645
2.584,-1.3772,2.7057,1.7463,3.502
2.589,-1.2046,2.6891,1.0981,3.145
2.594,-0.7887,2.7862,-0.0251,2.896
2.599,-0.8077,2.6599,-0.3679,2.804
2.604,-1.6436,2.5885,-0.8626,3.185
2.608,-1.7627,2.762,-0.4325,3.305
2.613,-1.4139,2.6367,0.3441,3.012
2.618,-0.823,2.1225,0.692,2.379
2.623,-0.2606,1.3472,0.2998,1.405
2.628,0.357,1.0272,-0.3223,1.134
2.633,0.3183,0.8647,-0.725,1.172
2.639,-0.9684,1.6511,-1.9004,2.697
2.644,0.3252,0.6959,2.7096,2.816
2.649,-0.3956,0.5567,3.2805,3.351
2.653,-0.808,0.7025,1.4827,1.829
2.658,-0.4845,0.9999,0.9026,1.432
2.663,-5.4662,4.0616,-8.2713,10.714
2.666,-0.5387,2.1825,-0.3515,2.275
2.671,1.4504,-3.6436,13.8521,14.397
2.676,-9.9204,2.5244,-5.1765,11.471
2.681,1.1953,-0.6722,4.0259,4.253
2.686,3.2431,-4.4579,8.8562,10.432
2.691,0.1771,-1.1932,-2.3507,2.642
2.696,-10.8865,10.2839,-20.3048,25.23
2.7,2.9373,2.3521,5.0905,6.33
2.705,3.7138,-3.0088,19.6151,20.189
2.71,-2.7545,-2.0085,3.4,4.815
2.715,0.9694,-1.3753,-5.5054,5.757
2.72,5.312,-2.8104,-3.3546,6.883
2.724,4.3404,-2.7244,0.2089,5.129
2.729,0.0496,-0.6208,1.6451,1.759
2.734,-1.759,0.1413,2.0737,2.723
2.74,-1.1332,-0.4194,1.2377,1.73
2.744,-0.3258,-1.4724,0.8317,1.722
2.749,0.238,-2.2967,0.771,2.434
2.754,0.7609,-2.4284,0.764,2.657
2.759,1.3034,-2.1464,0.6913,2.605
2.764,1.4975,-1.563,0.498,2.221
2.768,0.9237,-0.9023,0.3361,1.334
2.773,0.0206,-0.4511,0.2589,0.521
2.778,-0.5476,-0.3659,0.0905,0.665
2.783,-0.8229,-0.5408,-0.1109,0.991
2.788,-0.8453,-0.6054,-0.1292,1.048
2.793,-1.0048,-0.4942,-0.1143,1.126
2.797,-1.0844,-0.502,0.0859,1.198
2.802,-1.0499,-0.6964,0.211,1.277
2.806,-1.0962,-0.9585,0.1732,1.466
2.812,-0.8544,-0.9902,0.2117,1.325
2.817,-0.5074,-0.757,0.2581,0.947
2.821,-0.3789,-0.6762,0.4134,0.878
2.827,-0.4029,-0.8512,0.5749,1.103
2.831,-0.3803,-1.0453,0.58,1.254
2.836,-0.4615,-1.0556,0.5814,1.29
2.841,-0.6677,-0.9514,0.6318,1.323
2.846,-0.7842,-0.7854,0.6861,1.305
2.851,-1.292,-0.464,0.3285,1.412
2.856,-2.0164,0.0869,-0.1278,2.022
2.86,-2.2028,0.2608,-0.1713,2.225
2.865,-3.7964,1.8704,-0.4975,4.261
2.87,-13.1824,8.2215,-9.3448,18.13
2.875,-4.2886,5.1154,1.312,6.803
2.879,-11.3424,6.2456,-1.6085,13.048
2.885,-11.3716,4.9051,-1.7504,12.507
2.889,-9.7471,4.4148,-2.8586,11.076
2.894,-8.9631,4.6826,-3.7794,10.796
2.899,-5.5406,3.3646,-1.0935,6.574
2.903,-7.6178,4.1822,-1.5217,8.823
2.909,-6.1712,3.1101,-0.4916,6.928
2.914,-8.043,4.4553,-3.9531,10.008
2.918,-0.6429,1.166,-0.7153,1.511
2.923,-7.5524,4.5418,-3.4531,9.465
2.929,2.2647,-0.6758,-0.5369,2.424
2.933,16.2836,-8.9632,0.7527,18.603
2.938,26.6069,-16.1398,4.0338,31.38
2.942,2.6511,-5.7952,7.4182,9.78
2.948,-1.217,2.9477,1.8133,3.669
2.953,-2.1293,7.6989,-10.3968,13.111
2.957,3.1895,6.9548,-2.0398,7.918
2.962,9.6688,-1.2894,0.465,9.765
2.967,1.0487,-2.0987,-3.0589,3.855
2.971,10.3621,-7.5389,5.0073,13.758
2.976,10.2039,-8.9583,5.4461,14.63
2.982,1.8456,0.937,-0.1827,2.078
2.986,-4.6978,4.1906,-4.1971,7.566
2.991,7.7481,-1.9942,3.7637,8.842
2.996,-2.8366,0.6598,-2.1034,3.593
3.001,14.0873,-12.9494,7.3561,20.5
3.006,3.2623,-8.0322,-0.5554,8.687
3.01,-24.831,14.309,-9.5672,30.214
3.016,5.3225,-0.756,6.5495,8.473
3.021,-0.3527,0.5319,-2.0156,2.114
3.025,-7.9316,0.6908,-4.7796,9.286
3.029,-2.0948,-2.2162,0.5577,3.1
3.034,3.9455,-2.3548,4.1959,6.222
3.039,-8.3799,4.0094,-3.8152,10.043
3.045,34.1068,-18.5655,18.9179,43.195
3.049,10.1983,-9.5331,-2.6218,14.204
3.054,-14.0748,5.1196,-1.9158,15.099
3.059,0.9056,-1.1517,5.0187,5.228
3.063,5.7724,-2.1807,1.0303,6.256
3.068,-1.3543,0.8904,-3.8077,4.138
3.073,-4.8257,-1.288,-1.3257,5.168
3.078,-1.9362,-4.0416,-0.5866,4.52
3.083,0.577,-2.9969,0.4818,3.09
3.088,1.187,-1.9995,2.5002,3.414
3.093,0.5267,-2.2499,1.789,2.922
3.097,-0.346,-1.8682,-0.0579,1.901
3.103,-0.5901,-1.3113,0.3583,1.482
3.107,-0.6226,-0.9973,0.5922,1.316
3.112,-1.3002,-0.0848,-0.1425,1.311
3.117,-1.7351,0.4629,-0.0563,1.797
3.122,-1.6027,0.0479,0.3146,1.634
3.127,-2.037,0.0572,-0.4999,2.098
3.132,-2.8124,0.6129,-0.9865,3.043
3.136,-2.6425,0.6939,-0.4429,2.768
3.141,-2.2975,0.5745,-0.4191,2.405
3.146,-2.5463,0.8688,-0.8484,2.821
3.151,-2.4074,0.9886,-0.6282,2.677
3.156,-1.8617,0.6872,-0.351,2.015
3.162,-1.6953,0.6721,-0.5927,1.918
3.166,-1.5533,0.8927,-0.7925,1.959
3.171,-1.0308,0.8176,-0.6207,1.455
3.177,-0.8449,0.7618,-0.6353,1.303
3.181,-0.8401,0.8043,-0.7308,1.374
3.186,-0.5427,0.682,-0.6156,1.067
3.191,-0.6537,0.8922,-0.7507,1.337
3.194,-0.9913,1.4087,-0.883,1.936
3.199,-0.784,1.5528,-0.8712,1.945
3.204,-0.5685,1.4876,-1.0802,1.924
3.209,-0.4744,1.5054,-1.367,2.088
3.214,-0.4302,1.6928,-1.5656,2.346
3.219,-0.4241,1.9114,-1.6914,2.587
3.224,-0.3244,1.9101,-1.7473,2.609
3.228,-0.198,1.6772,-1.7359,2.422
3.233,-0.1238,1.3731,-1.7596,2.235
3.24,-0.0731,1.1388,-1.7423,2.083
3.244,0.153,0.814,-1.5572,1.764
3.249,0.3351,0.5582,-1.46,1.599
3.256,0.3468,0.4452,-1.5192,1.621
3.259,0.3411,0.3385,-1.447,1.525
3.265,0.4657,0.0948,-1.2875,1.372
3.269,0.6795,-0.1115,-1.2861,1.459
3.275,0.8723,-0.3065,-1.0984,1.436
3.28,1.0419,-0.5358,-0.8345,1.438
3.284,1.0302,-0.6056,-0.7861,1.43
3.289,0.9617,-0.5684,-0.7335,1.336
3.293,0.817,-0.4766,-0.6078,1.124
3.299,0.5981,-0.3709,-0.5689,0.905
3.305,0.431,-0.2577,-0.6215,0.799
3.308,0.3483,-0.1821,-0.6438,0.754
3.313,0.2945,-0.0218,-0.7296,0.787
3.319,0.181,0.221,-0.7075,0.763
3.322,-0.0952,0.4963,-0.7458,0.901
3.328,-0.6348,0.5441,-0.9313,1.252
3.332,-0.6875,0.6473,-0.8762,1.288
3.338,-0.8037,0.9421,-1.0039,1.594
3.342,-0.7293,1.1648,-0.8731,1.628
3.351,-0.5238,0.9373,-0.4834,1.178
3.353,-0.3184,0.5801,-0.2596,0.711
3.358,-0.0654,0.1171,-0.0987,0.167
3.361,0.1592,-0.0906,0.0587,0.192
3.366,0.1936,-0.0702,0.172,0.268
3.37,0.1607,0.0101,0.2564,0.303
3.376,0.1427,0.0756,0.2527,0.3
3.38,0.0326,0.0851,0.2576,0.273
3.39,-0.0715,0.0744,0.4201,0.433
3.392,-0.1478,0.055,0.5043,0.528
3.396,-0.1699,0.003,0.5678,0.593
3.405,-0.1593,-0.0529,0.6149,0.637
3.406,-0.1445,-0.0958,0.676,0.698
3.409,-0.1543,-0.03,0.6687,0.687
3.414,-0.1864,0.0732,0.6259,0.657
3.419,-0.1313,0.1421,0.5805,0.612
3.425,-0.1636,0.2894,0.5055,0.605
3.434,-0.3361,0.4651,0.4294,0.717
3.436,-0.4653,0.5285,0.3878,0.804
3.439,-0.547,0.2769,0.4644,0.769
3.443,-0.3071,0.2371,0.4623,0.604
3.448,-0.193,0.2416,0.5892,0.665
3.456,-0.0465,0.462,0.7188,0.856
3.456,-0.0007,0.4173,0.8681,0.963
3.463,-0.1077,0.2342,0.9779,1.011
3.469,-0.3316,0.0061,0.8954,0.955
3.471,-0.4262,-0.1858,0.7862,0.913
3.476,-0.5256,-0.2221,0.811,0.992
3.484,-0.4171,-0.3061,0.965,1.095
3.486,-0.1744,-0.5695,1.0216,1.183
3.492,-0.0917,-0.7423,0.9807,1.233
3.497,-0.1591,-0.7049,0.9735,1.212
3.503,-0.2692,-0.498,0.9164,1.077
3.508,-0.3723,-0.3033,0.7643,0.903
3.511,-0.412,-0.2134,0.6157,0.771
3.516,-0.3816,-0.1945,0.5445,0.693
3.521,-0.3033,-0.1577,0.5333,0.633
3.525,-0.208,-0.103,0.4524,0.508
3.531,-0.1912,-0.0733,0.3372,0.395
3.536,-0.1452,-0.0711,0.2572,0.304
3.54,-0.0292,-0.1826,0.2769,0.333
3.545,0.1214,-0.3003,0.3343,0.465
3.553,0.2785,-0.4701,0.4104,0.683
3.555,0.4092,-0.6109,0.4575,0.866
3.56,0.4039,-0.649,0.4301,0.877
3.565,0.3634,-0.6132,0.3668,0.802
3.57,0.2879,-0.5875,0.2367,0.696
3.575,0.2636,-0.572,0.1403,0.645
3.581,0.3071,-0.5379,0.0806,0.625
3.587,0.3468,-0.5573,0.1846,0.682
3.592,0.4685,-0.6468,0.1682,0.816
3.594,0.7176,-0.7465,0.1316,1.044
3.599,0.9842,-0.8445,0.206,1.313
3.605,1.1707,-0.9122,0.2689,1.508
3.607,1.3632,-0.9283,0.2005,1.661
3.613,1.3421,-0.8185,0.1387,1.578
3.618,1.0665,-0.5517,0.0835,1.204
3.622,0.6412,-0.2448,-0.1324,0.699
3.629,-0.047,0.2581,-0.4843,0.551
3.633,-0.4419,0.6273,-0.635,0.996
3.64,-0.6593,0.8132,-0.7844,1.308
3.642,-0.7047,0.8356,-0.8183,1.365
3.649,-0.3205,0.6779,-0.6843,1.015
3.653,-0.1662,0.7203,-0.577,0.938
3.656,0.0145,0.7688,-0.3746,0.855
3.665,0.2002,0.7588,-0.4239,0.892
3.666,0.3508,0.7091,-0.4378,0.904
3.67,0.3901,0.6939,-0.4598,0.919
3.675,0.3595,0.8251,-0.4808,1.02
3.679,0.3454,0.9686,-0.4746,1.133
3.684,0.272,1.045,-0.5027,1.191
3.689,0.2043,1.0301,-0.522,1.173
3.693,0.1811,0.9333,-0.5179,1.083
3.699,0.2028,0.8356,-0.4356,0.964
3.703,0.1265,0.7318,-0.4661,0.877
3.709,0.0793,0.7006,-0.4875,0.857
3.716,0.0064,0.8494,-0.6286,1.057
3.718,-0.2196,0.9511,-0.6378,1.166
3.723,-0.4035,0.8653,-0.5597,1.107
3.728,-0.4649,0.6644,-0.6714,1.053
3.733,-0.567,0.5521,-0.672,1.038
3.738,-0.6168,0.4784,-0.5764,0.97
3.743,-0.6074,0.405,-0.5091,0.89
3.749,-0.5724,0.325,-0.363,0.752
3.752,-0.5406,0.2432,-0.2624,0.648
3.757,-0.5002,0.1715,-0.143,0.548
3.765,-0.4055,0.0981,-0.0263,0.418
3.767,-0.314,-0.0035,0.0855,0.325
3.772,-0.2061,-0.1,0.1926,0.299
3.776,-0.1461,-0.1989,0.3045,0.392
3.782,-0.1217,-0.3458,0.4455,0.577
3.787,-0.2429,-0.3971,0.4962,0.68
3.791,-0.3299,-0.4297,0.507,0.742
3.797,-0.4617,-0.4269,0.5043,0.806
3.801,-0.5566,-0.4558,0.5333,0.896
3.806,-0.6217,-0.385,0.541,0.91
3.81,-0.6733,-0.2651,0.5893,0.933
3.818,-0.6899,-0.2083,0.6591,0.977
3.819,-0.7169,-0.2578,0.6669,1.012
3.826,-0.7021,-0.296,0.6722,1.016
3.83,-0.7459,-0.3205,0.7371,1.097
3.836,-0.7217,-0.4006,0.7491,1.115
3.839,-0.7683,-0.4692,0.8276,1.223
3.846,-0.8618,-0.4664,0.8583,1.303
3.848,-1.005,-0.4497,0.8892,1.415
3.853,-1.0908,-0.366,0.9018,1.462
3.859,-1.1079,-0.244,0.8059,1.392
3.866,-1.0664,-0.0474,0.7829,1.324
3.868,-0.955,0.0805,0.7849,1.239
3.873,-0.7286,0.121,0.7231,1.034
3.878,-0.6121,0.2249,0.6927,0.951
3.883,-0.5528,0.3396,0.5977,0.882
3.887,-0.4932,0.3742,0.5096,0.802
3.893,-0.4567,0.3668,0.4113,0.716
3.898,-0.4187,0.2909,0.3816,0.637
3.902,-0.3259,0.1938,0.3748,0.533
3.911,-0.2781,0.1396,0.3335,0.456
3.912,-0.1888,0.0708,0.3007,0.362
3.917,-0.1173,0.0228,0.231,0.26
3.922,-0.049,-0.0022,0.1848,0.191
3.927,0.0114,-0.0044,0.172,0.172
3.931,0.0711,-0.0555,0.1045,0.138
3.936,0.0679,-0.1411,0.0589,0.167
3.941,0.0663,-0.1776,-0.0005,0.19
3.946,0.0374,-0.2029,-0.0044,0.206
3.95,0.0049,-0.2147,-0.0486,0.22
3.956,-0.0578,-0.2389,-0.1165,0.272
3.961,-0.0914,-0.2681,-0.2007,0.347
3.966,-0.1536,-0.2926,-0.2363,0.406
3.97,-0.1017,-0.3239,-0.2637,0.43
3.975,0.0211,-0.448,-0.2207,0.5
3.982,0.0832,-0.4736,-0.2722,0.553
3.984,0.135,-0.3673,-0.304,0.496
3.992,0.0067,-0.1605,-0.3925,0.424
3.997,-0.1103,-0.0058,-0.4497,0.463
3.999,-0.1518,0.0896,-0.4735,0.505
4.004,-0.2035,0.1591,-0.4621,0.529
4.01,-0.2338,0.1763,-0.4682,0.552
4.014,-0.1898,0.1121,-0.3892,0.447
4.02,-0.1185,0.0403,-0.292,0.318
4.025,-0.1533,0.0131,-0.1522,0.216
4.029,-0.1792,-0.0343,-0.0767,0.198
4.033,-0.2607,-0.0469,-0.0272,0.266
4.038,-0.5362,-0.2136,0.0281,0.578
4.042,-0.6531,-0.2443,-0.0374,0.698
4.049,-0.1692,0.3075,0.0682,0.358
4.052,-0.5492,0.3101,0.4574,0.779
4.057,-0.6787,0.1444,0.2143,0.726
4.061,-0.7448,0.0332,0.1944,0.77
4.069,-27.4497,16.9824,-11.9463,34.418
4.073,-11.8682,11.9439,2.1129,16.97
4.077,-10.6647,8.153,-4.1254,14.044
4.083,-16.7837,7.4636,-8.9332,20.425
4.087,-15.5446,7.0933,-2.9312,17.336
4.091,-11.7985,7.3199,-2.0087,14.029
4.097,-9.2755,5.468,-0.6099,10.785
4.101,-14.0499,6.7171,-2.6736,15.801
4.106,-10.3826,3.4721,-3.0545,11.366
4.111,-0.6967,-3.0772,-0.5654,3.205
4.116,23.8867,-16.3872,2.5737,29.082
4.121,18.0852,-16.3156,7.5108,25.489
4.125,-6.4336,0.0396,11.5818,13.249
4.13,2.3691,1.8377,-3.3107,4.467
4.135,3.4849,0.0932,0.2493,3.495
4.143,-14.3805,5.2746,-8.1988,17.374
4.144,-10.8823,2.9931,-3.316,11.763
4.151,-2.7152,0.8396,-0.5287,2.891
4.154,-0.6734,-0.4453,-0.8761,1.191
4.16,11.7185,-4.7672,7.7847,14.854
4.165,20.7002,-11.4666,10.7117,25.975
4.169,-20.0496,9.3267,-3.1511,22.336
4.173,4.603,0.494,9.488,10.557
4.179,16.8941,-10.0215,8.2862,21.319
4.183,-17.7539,5.5869,-9.5281,20.909
4.188,-4.9103,2.9271,4.338,7.176
4.192,-0.749,0.3057,4.1418,4.22
4.198,1.8525,-2.8122,4.0781,5.289
4.203,9.6447,-4.9606,6.4753,12.632
4.208,-7.4469,1.035,0.7028,7.551
4.213,9.8323,-1.911,5.151,11.263
4.217,-2.3497,3.851,2.6318,5.223
4.225,1.231,1.0658,1.9557,2.545
4.226,5.1149,1.2243,2.9285,6.02
4.232,5.9968,-0.2865,2.2321,6.405
4.237,11.4392,-1.9872,8.5653,14.428
4.243,-7.6994,8.0895,-3.9577,11.848
4.246,14.7104,-2.2403,9.8395,17.839
4.254,23.3595,-8.3773,10.8083,27.068
4.255,11.4916,-2.5042,-0.3547,11.767
4.261,1.723,2.0361,0.3523,2.69
4.265,2.9836,1.7058,6.3495,7.22
4.27,5.4883,0.1084,5.0381,7.451
4.276,2.8762,0.4464,0.7655,3.01
4.28,-0.7344,1.2288,-0.245,1.452
4.286,-2.7272,-0.9963,1.8353,3.435
4.293,0.7108,-1.2043,3.0483,3.354
4.294,2.0391,-0.1955,3.1879,3.789
4.299,2.0403,-0.5532,2.8841,3.576
4.31,2.3044,-0.9835,3.3742,4.203
4.311,2.3286,-1.4727,3.3706,4.353
4.315,1.3431,-1.2723,3.0345,3.554
4.32,-0.1589,-0.9408,2.8024,2.96
4.325,-0.7353,-1.4008,2.6775,3.11
4.332,-0.9849,-1.8518,2.537,3.292
4.334,-0.9546,-1.6695,1.9163,2.715
4.341,-1.0618,-1.7576,1.3453,2.455
4.344,-0.6356,-2.1223,1.1303,2.487
4.348,-0.4599,-2.361,0.7739,2.527
4.355,-0.8564,-2.2676,0.5523,2.486
4.359,-1.276,-1.9948,0.7664,2.489
4.365,-1.9061,-1.5712,0.8461,2.611
4.367,-2.3903,-1.0615,0.5951,2.682
4.371,-2.4102,-0.7912,0.165,2.542
4.376,-1.9864,-0.3854,-0.5599,2.099
4.381,-1.396,-0.0556,-1.2495,1.874
4.386,-1.1205,0.0064,-1.1598,1.613
4.394,-1.5535,0.0852,-0.7896,1.745
4.396,-2.1908,0.0068,-0.4015,2.227
4.401,-2.5703,-0.3114,-0.2168,2.598
4.405,-2.5456,-0.7111,-0.3398,2.665
4.41,-2.1136,-1.0675,-0.5832,2.439
4.415,-1.4305,-1.3423,-0.714,2.088
4.42,-1.2986,-1.3377,-0.6565,1.977
4.424,-1.0464,-1.245,-0.4574,1.689
4.429,-0.9851,-1.1938,-0.2534,1.568
4.434,-0.8763,-1.0908,-0.5103,1.489
4.438,-0.8876,-0.8788,-0.5437,1.362
4.443,-0.9542,-0.5631,-0.5937,1.257
4.449,-1.0389,-0.2714,-0.6497,1.255
4.454,-1.0229,-0.1023,-0.5172,1.151
4.458,-0.7136,-0.0925,-0.1641,0.738
4.464,-0.2058,-0.2352,0.1256,0.337
4.468,0.5392,-0.3538,0.0014,0.645
4.474,0.891,-0.5105,-0.2451,1.056
4.478,0.8236,-0.7291,-0.2926,1.138
4.483,0.9113,-1.0211,-0.2114,1.385
4.488,1.1154,-1.0159,-0.3085,1.54
4.493,1.5695,-0.9644,-0.0444,1.843
4.5,1.6801,-0.6679,0.1326,1.813
4.502,2.0874,-0.5063,0.3226,2.172
4.509,2.1699,-0.2617,0.1419,2.19
4.512,2.1428,-0.1227,-0.0616,2.147
4.518,1.9841,0.081,-0.2063,1.996
4.522,1.7721,0.2757,-0.3739,1.832
4.528,1.3059,0.4735,-0.9868,1.704
4.532,1.0503,0.2297,-1.2291,1.633
4.537,0.8294,-0.1876,-1.3798,1.621
4.545,0.8492,-0.6473,-1.5016,1.843
4.547,0.899,-0.9243,-1.5798,2.039
4.552,0.9013,-0.9327,-1.4272,1.929
4.557,0.7209,-0.7869,-1.3463,1.718
4.562,0.3662,-0.3888,-1.318,1.422
4.568,0.1638,-0.1616,-1.2293,1.251
4.572,0.0468,-0.0525,-1.1692,1.171
4.577,0.2332,-0.0189,-1.1194,1.144
4.586,0.4273,-0.0491,-1.0541,1.138
4.589,0.6015,0.0238,-0.9361,1.113
4.592,0.8741,-0.0517,-0.7352,1.143
4.597,0.959,-0.1849,-0.6985,1.201
4.602,1.0888,-0.4383,-0.7748,1.406
4.608,1.2745,-0.8313,-1.0325,1.839
4.611,1.2784,-1.3021,-1.0632,2.112
4.616,1.0844,-1.8148,-0.9164,2.304
4.621,1.1899,-2.1878,-0.7422,2.599
4.626,0.8637,-2.4047,-0.7595,2.666
4.631,0.4944,-2.5393,-0.8173,2.713
4.637,0.0424,-2.5983,-0.8099,2.722
4.64,-0.5084,-2.6673,-0.9879,2.889
4.646,-0.9606,-2.7291,-1.4462,3.235
4.651,-1.2122,-2.8433,-1.5442,3.455
4.657,-1.1389,-2.9427,-1.2985,3.412
4.66,-0.7983,-2.9846,-0.9667,3.237
4.667,-0.1694,-2.9328,-0.7184,3.024
4.671,0.5842,-2.78,-0.6145,2.906
4.675,1.1009,-2.6479,-0.6518,2.941
4.68,1.5739,-2.4883,-0.5245,2.991
4.686,1.6403,-2.3899,-0.4288,2.93
4.689,1.4325,-2.4026,-0.4869,2.839
4.696,1.4985,-2.4574,-0.4236,2.909
4.699,1.5139,-2.5757,-0.4357,3.019
4.705,1.1927,-2.7457,-0.6415,3.062
4.71,1.4261,-2.7903,-0.7362,3.219
4.715,1.4227,-2.6334,-0.7326,3.082
4.718,0.9888,-2.3612,0.0654,2.561
4.723,1.2356,-2.4565,1.1125,2.966
4.729,0.8926,-1.906,0.5305,2.171
4.733,0.4975,-1.4137,0.2287,1.516
4.739,0.5533,-1.1287,-0.4163,1.324
4.743,0.527,-0.774,-0.988,1.361
4.749,0.2737,-0.2951,-1.2343,1.298
4.751,0.104,0.2552,-1.0176,1.054
4.759,0.0011,0.8171,-0.4803,0.948
4.763,-0.1099,1.2909,0.0954,1.299
4.769,-0.1723,1.7108,0.5594,1.808
4.771,-0.3168,1.9532,0.8246,2.144
4.777,-0.1485,2.0932,0.9373,2.298
4.782,0.3558,2.2175,0.8505,2.402
4.787,0.8358,2.5074,0.5515,2.7
4.791,0.9101,2.8813,0.2956,3.036
4.797,0.6219,3.227,0.2948,3.3
4.802,0.262,3.4228,0.4646,3.464
4.806,-0.0626,3.4212,0.6526,3.484
4.811,-0.1782,3.3183,0.7573,3.408
4.816,-0.0463,3.145,0.7925,3.244
4.82,0.0019,2.9822,0.5877,3.04
4.825,-0.0541,2.8272,0.4254,2.86
4.829,-0.1176,2.6009,0.4207,2.637
4.836,-0.2051,2.3821,0.5,2.443
4.84,-0.2733,2.2591,0.5183,2.334
4.843,-0.2789,2.2413,0.4259,2.298
4.847,-0.2004,2.2735,0.3243,2.305
4.853,-0.1357,2.2671,0.3151,2.293
4.857,-0.0847,2.1291,0.3596,2.161
4.862,0.0241,1.8382,0.4212,1.886
4.868,0.1192,1.5451,0.5147,1.633
4.871,0.184,1.3718,0.5809,1.501
4.879,0.2283,1.3063,0.606,1.458
4.882,0.2116,1.2815,0.5913,1.427
4.888,0.1654,1.2711,0.5179,1.382
4.895,0.1784,1.2513,0.6257,1.41
4.897,0.1646,1.3104,0.5151,1.418
4.9,0.0977,1.4149,0.1256,1.424
4.906,-0.0348,1.5767,-0.2313,1.594
4.913,-0.2052,1.6646,-0.4512,1.737
4.916,-0.2544,1.5424,-0.4565,1.629
14.396,-0.2026,1.2751,-0.4924,1.382
14.398,-0.0157,1.0133,-0.6433,1.2
14.399,0.1333,0.8478,-0.8887,1.235
14.401,0.2313,0.7399,-1.1506,1.387
14.403,0.2171,0.6175,-1.2141,1.379
14.404,-0.1064,0.5693,-1.3128,1.435
14.406,-0.4259,0.5951,-1.5509,1.715
14.408,-0.6731,0.6594,-1.7565,1.993
14.409,-0.9706,0.7933,-1.9087,2.283
14.409,-1.0797,0.9466,-2.1297,2.569
14.41,-0.9889,1.0332,-2.2357,2.654
14.41,-0.7817,1.0651,-2.3323,2.681
14.411,-0.4386,1.0688,-2.4438,2.703
14.411,-0.2314,1.0679,-2.5015,2.73
14.412,-0.138,1.1006,-2.5636,2.793
14.412,-0.024,1.1169,-2.3871,2.636
14.413,0.0584,1.0902,-2.0802,2.349
14.413,0.2656,0.8461,-1.796,2.003
14.414,0.5099,0.5614,-1.6348,1.802
14.414,0.6536,0.3246,-1.6661,1.819
14.415,0.7187,0.2262,-1.6633,1.826
14.415,0.7934,0.2375,-1.5166,1.728
14.415,0.9543,0.2484,-1.4983,1.794
14.416,0.9861,0.3211,-1.7154,2.005
14.416,0.8098,0.3431,-1.8013,2.005
14.417,0.6751,0.2311,-1.6667,1.813
14.417,0.7249,-0.0388,-1.3723,1.552
14.419,0.7489,-0.3804,-1.2112,1.474
14.419,0.6453,-0.6912,-0.9729,1.357
14.422,0.5243,-0.94,-0.9992,1.469
14.423,0.6328,-1.1104,-1.3031,1.825
14.427,0.7083,-1.1856,-1.2331,1.851
14.429,0.8085,-1.2757,-1.0003,1.812
14.429,0.8689,-1.3617,-0.8433,1.822
14.43,0.7793,-1.4459,-0.7616,1.81
14.43,0.6249,-1.4993,-0.6591,1.753
14.431,0.565,-1.5459,-0.5908,1.749
14.431,0.5606,-1.5425,-0.5635,1.735
14.432,0.6112,-1.4674,-0.4198,1.644
14.432,0.5684,-1.3973,-0.2889,1.536
14.432,0.4657,-1.3942,-0.1833,1.481
14.433,0.2216,-1.3695,-0.1871,1.4
14.433,-0.0376,-1.3206,-0.2575,1.346
14.433,-0.2885,-1.238,-0.1177,1.277
14.434,-0.5601,-1.1527,0.0601,1.283
14.434,-0.77,-1.0359,0.1682,1.302
14.434,-0.9298,-0.9115,0.1975,1.317
14.435,-0.7171,-0.9684,0.1122,1.21
14.435,-0.3818,-1.1206,-0.1335,1.191
14.436,-0.8979,-0.8852,0.0907,1.264
14.436,-1.7206,-0.6761,0.9423,2.075
14.436,-1.3167,-0.6558,0.9743,1.764
14.437,-0.5969,-0.8073,0.6012,1.17
14.437,-0.7244,-0.6241,0.6278,1.144
14.437,-0.3597,-0.5175,0.5286,0.823
14.437,0.0217,-0.2081,-0.2919,0.359
14.438,0.3348,0.0603,-0.6347,0.72
14.438,0.1094,0.5074,-0.6444,0.827
14.439,-0.376,1.0043,-0.4437,1.161
14.439,-0.5878,1.4556,-0.5385,1.66
14.439,-0.6422,1.8064,-0.4857,1.978
14.44,-0.5453,1.9376,-0.4211,2.056
14.44,-0.3806,1.9759,-0.631,2.109
14.441,-0.3699,2.0243,-0.7143,2.178
14.441,-0.4432,1.9846,-0.686,2.146
14.442,-0.4207,1.8762,-0.5707,2.006
14.442,-0.3855,1.7253,-0.5721,1.858
14.443,-0.3011,1.6347,-0.6762,1.794
14.443,-0.1763,1.6544,-0.8048,1.848
14.444,-0.0776,1.6982,-0.9843,1.964
14.444,0.0211,1.723,-1.0806,2.034
14.444,0.0836,1.7672,-1.1674,2.12
14.445,0.1024,1.8045,-1.2705,2.209
14.445,0.0748,1.7847,-1.337,2.231
14.446,0.0102,1.7176,-1.3762,2.201
14.446,-0.0365,1.5768,-1.405,2.112
14.446,-0.0099,1.4246,-1.3372,1.954
14.447,0.0448,1.2729,-1.3115,1.828
14.447,0.1016,1.1504,-1.364,1.787
14.447,0.0935,0.9926,-1.3733,1.697
14.448,0.0133,0.7851,-1.2864,1.507
14.448,0.0305,0.5568,-1.1389,1.268
14.449,0.0544,0.3004,-1.0447,1.088
14.449,0.0516,0.0612,-1.0439,1.047
14.45,0.0103,-0.132,-1.0572,1.066
14.45,-0.0745,-0.3033,-1.0489,1.094
14.45,-0.1285,-0.4575,-0.9897,1.098
14.45,-0.1137,-0.5778,-0.9464,1.115
14.451,-0.1209,-0.6908,-0.9282,1.163
14.451,-0.1834,-0.8298,-0.88,1.223
14.451,-0.2914,-0.9568,-0.8209,1.294
14.452,-0.4237,-0.9807,-0.746,1.303
14.452,-0.53,-0.9784,-0.612,1.27
14.452,-0.6194,-0.9549,-0.5327,1.257
14.453,-0.688,-0.9122,-0.4753,1.237
14.453,-0.6408,-0.879,-0.3827,1.153
14.453,-0.5229,-0.8267,-0.2548,1.011
14.453,-0.3936,-0.7619,-0.2073,0.882
14.454,-0.3027,-0.6495,-0.1627,0.735
14.454,-0.3168,-0.5709,-0.0948,0.66
14.454,-0.3757,-0.4712,0.0245,0.603
14.455,-0.4811,-0.3576,0.095,0.607
14.455,-0.6218,-0.2586,0.0945,0.68
14.455,-0.6905,-0.2147,0.2021,0.751
14.455,-0.7014,-0.1973,0.1329,0.741
14.456,-0.7302,-0.1561,0.0181,0.747
14.456,-0.6238,-0.1557,0.0221,0.643
14.456,-0.5828,-0.1554,0.0249,0.604
14.457,-0.4921,-0.1387,-0.0644,0.515
14.457,-0.2778,-0.1269,-0.2105,0.371
14.457,-0.0826,-0.0629,-0.4804,0.492
14.457,0.0362,-0.004,-0.7885,0.789
14.458,0.11,-0.0051,-0.8481,0.855
14.458,0.1317,-0.0546,-0.687,0.702
14.459,0.1464,-0.0448,-0.4357,0.462
14.459,0.1947,-0.0215,-0.2507,0.318
14.459,0.2002,-0.0208,-0.0878,0.22
14.46,0.1605,-0.0737,0.0491,0.183
14.46,0.1282,-0.1996,0.199,0.31
14.46,0.1176,-0.3457,0.2853,0.463
14.46,0.0501,-0.4858,0.296,0.571
14.461,-0.0434,-0.6124,0.2877,0.678
14.461,-0.0722,-0.7637,0.257,0.809
14.461,-0.1394,-0.894,0.2127,0.929
14.462,-0.195,-0.9553,0.1755,0.991
14.462,-0.2803,-0.9186,0.1544,0.973
14.462,-0.4074,-0.8295,0.1513,0.936
14.463,-0.5527,-0.7046,0.1183,0.903
14.463,-0.6955,-0.5986,0.0887,0.922
14.463,-0.8298,-0.4898,0.0171,0.964
14.464,-0.9255,-0.3731,-0.1135,1.004
14.464,-0.9933,-0.2291,-0.2196,1.043
14.464,-1.0212,-0.0841,-0.294,1.066
14.465,-1.1384,-0.0242,-0.3101,1.18
14.465,-1.2252,-0.0399,-0.2674,1.255
14.465,-1.2765,-0.1146,-0.194,1.296
14.466,-1.2638,-0.1813,-0.1562,1.286
14.466,-1.2321,-0.2379,-0.137,1.262
14.466,-1.1667,-0.2821,-0.1168,1.206
14.467,-1.0941,-0.321,-0.0913,1.144
14.467,-0.9996,-0.3356,-0.0316,1.055
14.467,-0.9526,-0.3666,0.0096,1.021
14.467,-0.8452,-0.3948,0.0347,0.933
14.468,-0.7513,-0.3845,0.0415,0.845
14.468,-0.6563,-0.3717,0.0969,0.76
14.468,-0.622,-0.3277,0.177,0.725
14.469,-0.5833,-0.3077,0.2532,0.706
14.469,-0.5353,-0.3118,0.3088,0.692
14.469,-0.4781,-0.2992,0.3631,0.671
14.47,-0.4234,-0.2653,0.3827,0.629
14.47,-0.3979,-0.1742,0.3986,0.59
14.47,-0.3823,-0.057,0.4705,0.609
14.471,-0.4127,0.0576,0.5412,0.683
14.471,-0.4459,0.1195,0.5722,0.735
14.471,-0.398,0.1382,0.5778,0.715
14.472,-0.3885,0.1043,0.5409,0.674
14.472,-0.3284,0.0847,0.5282,0.628
14.472,-0.2272,0.0913,0.5176,0.573
14.473,-0.1155,0.1527,0.5757,0.607
14.473,-0.0484,0.2665,0.626,0.682
14.473,0.0078,0.3299,0.6731,0.75
14.473,0.0484,0.3212,0.6787,0.752
14.474,0.083,0.279,0.6834,0.743
14.474,0.09,0.2487,0.6896,0.739
14.475,0.103,0.2014,0.6304,0.67
14.475,0.1366,0.1827,0.5609,0.606
14.476,0.112,0.2067,0.5241,0.574
14.476,0.1582,0.1683,0.5225,0.571
14.476,0.1939,0.1654,0.53,0.588
14.477,0.2093,0.1502,0.4941,0.557
14.477,0.2305,0.1468,0.5061,0.575
14.478,0.2596,0.1717,0.5205,0.607
14.479,0.2774,0.2251,0.5114,0.624
14.479,0.2621,0.271,0.5268,0.648
14.479,0.2088,0.2975,0.5189,0.634
14.48,0.1555,0.2761,0.5308,0.618
14.48,0.1308,0.2117,0.4619,0.525
18.041,0.1298,0.1784,0.3909,0.449
18.041,0.1191,0.0855,0.327,0.358
18.041,0.0463,0,0.3031,0.307
18.042,0.0114,-0.0564,0.312,0.317
18.042,-0.0075,-0.0789,0.3437,0.353
18.043,-0.0176,-0.003,0.2984,0.299
18.043,0.0097,-0.0464,0.3196,0.323
18.043,-0.0593,-0.13,0.3715,0.398
18.044,0.017,-0.0677,0.3278,0.335
18.044,0.0637,-0.0075,0.32,0.326
18.044,0.0189,-0.0285,0.3744,0.376
18.044,-0.0312,-0.121,0.3928,0.412
18.045,-0.0863,-0.187,0.3971,0.447
18.045,-0.2132,-0.2218,0.3344,0.454
18.045,-0.3066,-0.2135,0.2334,0.441
18.045,-0.424,-0.2217,0.1466,0.5
18.046,-0.4964,-0.189,0.0831,0.538
18.046,-0.5215,-0.2086,0.1169,0.574
18.046,-0.4634,-0.1872,0.0827,0.507
18.047,-0.3868,-0.2156,0.0955,0.453
18.047,-0.3011,-0.2437,0.1483,0.415
18.047,-0.2635,-0.274,0.2028,0.431
18.047,-0.1807,-0.2777,0.2255,0.401
18.048,-0.1172,-0.3076,0.2667,0.424
18.048,-0.0755,-0.3873,0.2953,0.493
18.048,0.1808,-0.4046,-0.0329,0.444
18.048,0.0788,-0.2542,-0.4056,0.485
18.049,-0.3898,-0.3069,0.0367,0.497
18.049,-0.2738,-0.2709,0.3761,0.538
18.049,-0.0303,-0.209,0.4544,0.501
18.049,0.1448,-0.181,0.3132,0.39
18.05,0.0917,-0.1105,0.168,0.221
18.05,0.057,-0.0575,0.1382,0.16
18.05,0.1411,-0.0242,0.1329,0.195
18.051,0.937,-0.1113,-0.1038,0.949
18.051,-0.0905,-0.0081,-0.0105,0.091
18.051,-0.6275,0.0539,0.4144,0.754
18.051,-0.4537,0.0895,0.5906,0.75
18.052,-0.0747,0.1152,0.4281,0.45
18.052,0.0007,0.179,0.1779,0.252
18.052,-0.1721,0.2259,0.1622,0.327
18.053,-0.3325,0.2392,0.2204,0.465
18.053,-0.3616,0.248,0.2614,0.511
18.053,-0.2648,0.2833,0.2164,0.444
18.053,-0.1354,0.3237,0.133,0.375
18.054,-0.076,0.4145,0.1091,0.435
18.054,-0.0314,0.4576,0.1853,0.495
18.054,-0.0158,0.4674,0.2015,0.509
18.055,0.0183,0.4631,0.1315,0.482
18.055,0.0828,0.3969,0.0783,0.413
18.055,0.2158,0.3478,0.0105,0.409
18.055,0.3075,0.3397,-0.0145,0.458
18.056,0.3535,0.3486,-0.0469,0.499
18.056,0.3566,0.3932,-0.0603,0.534
18.056,0.4344,0.4473,-0.0093,0.624
18.056,0.5679,0.4652,0.0943,0.74
18.057,0.6932,0.5471,0.0927,0.888
18.057,0.6838,0.6738,0.077,0.963
18.057,0.6523,0.7353,0.1283,0.991
18.057,0.6774,0.777,0.1918,1.049
18.058,0.6296,0.8278,0.1934,1.058
18.058,0.5205,0.8495,0.1311,1.005
18.058,0.376,0.7922,-0.0289,0.877
18.059,0.2742,0.7065,-0.1791,0.779
18.059,0.234,0.5807,-0.2556,0.676
18.059,0.2431,0.5081,-0.2012,0.598
18.059,0.2753,0.4958,-0.1188,0.579
18.06,0.3689,0.5054,-0.0752,0.63
18.06,0.4857,0.5655,-0.1227,0.755
18.06,0.4686,0.6282,-0.1376,0.796
18.06,0.3367,0.684,-0.1031,0.769
18.061,0.221,0.7473,-0.1483,0.793
18.061,0.0731,0.7565,-0.166,0.778
18.061,0.0258,0.7068,-0.2511,0.751
18.061,0.0356,0.687,-0.2916,0.747
18.062,0.0095,0.6898,-0.309,0.756
18.062,0.0722,0.6625,-0.2435,0.71
18.062,0.2169,0.6505,-0.16,0.704
18.062,0.1908,0.663,-0.1945,0.717
18.063,0.0374,0.5877,-0.2444,0.638
18.063,0.003,0.4823,-0.2742,0.555
18.063,0.0061,0.4161,-0.2313,0.476
18.063,0.0466,0.4272,-0.1514,0.456
18.064,0.0436,0.5059,-0.0657,0.512
18.064,0.028,0.5423,0.0307,0.544
18.064,-0.1037,0.5343,-0.0437,0.546
18.065,-0.3299,0.6038,-0.0333,0.689
18.065,-0.4598,0.4451,-0.0169,0.64
18.065,-0.5557,0.2636,-0.0914,0.622
18.065,-0.7069,0.0647,-0.1642,0.729
18.066,-0.9781,-0.1444,-0.2736,1.026
18.066,-0.528,-0.0314,-0.1993,0.565
18.066,-0.6473,0.0184,-0.1879,0.674
18.066,-0.757,-0.0598,-0.1478,0.774
18.067,-0.7087,-0.1176,-0.1555,0.735
18.067,-0.5498,-0.1002,-0.1323,0.574
18.067,-0.4257,-0.0438,-0.0516,0.431
18.068,-0.3717,-0.1207,-0.071,0.397
18.068,-0.4399,-0.1422,-0.0112,0.462
18.068,-0.3766,-0.1801,0.1113,0.432
18.068,-0.3637,-0.2346,0.2464,0.498
18.069,-0.6519,-0.2056,0.3015,0.747
18.069,-0.8304,-0.2602,0.2982,0.92
18.069,-0.6795,-0.3864,0.2127,0.81
18.069,-0.5185,-0.5299,0.1746,0.762
18.07,-0.4667,-0.6975,0.2977,0.89
18.07,-0.4803,-0.8155,0.3881,1.023
18.07,-0.5302,-0.8626,0.3291,1.065
18.071,-0.5431,-0.8789,0.194,1.051
18.072,-0.5209,-0.8983,0.1936,1.056
18.072,-0.5448,-0.866,0.2419,1.051
18.072,-0.5619,-0.8085,0.3605,1.049
18.073,-0.5861,-0.7766,0.502,1.095
18.073,-0.6056,-0.7753,0.5235,1.114
18.073,-0.6089,-0.778,0.468,1.093
18.073,-0.6629,-0.7562,0.4386,1.097
18.074,-0.6433,-0.8007,0.4139,1.107
18.074,-0.5644,-0.8231,0.5201,1.125
18.074,-0.6078,-0.8117,0.6308,1.194
18.075,-0.664,-0.8143,0.6125,1.216
18.075,-0.7002,-0.8448,0.5228,1.215
18.075,-0.6665,-0.8649,0.4191,1.17
18.075,-0.5967,-0.8721,0.3872,1.125
18.076,-0.6749,-0.8234,0.3626,1.125
18.076,-0.5699,-0.7861,0.3594,1.035
18.076,-0.3879,-0.7361,0.4231,0.934
18.076,-0.5445,-0.6786,0.499,1.003
18.077,-0.6518,-0.6829,0.5705,1.103
18.077,-0.6724,-0.6908,0.6289,1.151
18.077,-0.612,-0.6704,0.6407,1.111
18.077,-0.6066,-0.6696,0.5961,1.082
18.078,-0.5772,-0.6812,0.5478,1.047
18.078,-1.2938,-0.6412,0.7195,1.613
18.078,-0.4804,-0.8135,0.9029,1.307
18.079,0.1502,-0.6656,0.6714,0.957
18.079,0.097,-0.4944,0.2163,0.548
18.079,0.0235,-0.5289,0.2513,0.586
18.079,-0.2424,-0.5461,0.5671,0.824
18.08,-0.3885,-0.4718,0.7767,0.988
18.08,-0.1028,-0.356,0.6947,0.787
18.08,-0.0963,-0.1456,0.402,0.438
18.081,-0.0624,0.0419,0.2865,0.296
18.081,-0.0103,0.1134,0.5051,0.518
18.081,-0.0642,0.2003,0.7402,0.769
18.081,-0.0971,0.2162,0.7633,0.799
18.082,0.031,0.2215,0.6599,0.697
18.082,0.1477,0.2956,0.516,0.613
18.082,0.3124,0.379,0.3885,0.626
18.082,0.3006,0.5289,0.3992,0.728
18.083,0.1501,0.5904,0.5284,0.806
18.083,0.212,0.705,0.6657,0.993
18.083,0.17,0.7293,0.6153,0.969
18.083,0.0622,0.767,0.5123,0.924
18.084,0.0777,0.7294,0.5093,0.893
18.084,0.2171,0.6688,0.456,0.838
18.084,0.1867,0.626,0.3327,0.733
18.084,-0.0464,0.4792,0.282,0.558
18.085,-0.0442,0.3672,0.3604,0.516
18.085,-0.012,0.1847,0.3136,0.364
18.085,0.1969,0.0418,0.086,0.219
18.085,0.101,0.1215,-0.2024,0.257
18.086,-0.1354,0.1785,-0.3287,0.398
18.086,-0.2872,0.0092,-0.2256,0.365
18.086,0.1784,0.0965,-0.1578,0.257
18.086,0.1748,0.457,-0.2332,0.542
18.087,0.0928,0.6909,0.0466,0.699
18.087,0.1152,0.5978,0.2851,0.672
18.087,0.0899,0.4698,0.1199,0.493
18.087,-0.0336,0.4599,-0.2138,0.508
18.087,-0.349,0.5571,-0.3129,0.728
18.088,-0.649,0.6802,-0.2537,0.974
18.088,-0.744,0.8077,-0.2679,1.13
18.088,-0.7686,0.8776,-0.2809,1.2
18.088,-0.7681,0.9302,-0.1991,1.223
18.088,-0.79,0.9416,-0.1846,1.243
18.089,-0.8583,0.9115,-0.2684,1.28
18.089,-0.9561,0.8928,-0.2998,1.342
18.089,-0.8107,0.9066,-0.3768,1.273
18.089,-0.7991,0.6183,-0.27,1.046
18.09,-0.7634,0.5753,-0.1037,0.962
18.09,-0.7679,0.6195,-0.071,0.989
18.09,-0.8867,0.476,-0.0903,1.01
18.09,-0.8639,0.3265,-0.133,0.933
18.091,-0.7185,0.3671,-0.144,0.82
18.091,-0.3276,0.5039,-0.2809,0.663
18.091,0.9801,2.287,-0.9182,2.652
18.091,0.9808,1.7935,-0.159,2.05
18.092,0.4913,0.5833,1.3371,1.539
18.092,-0.3659,-0.1023,1.1842,1.244
18.092,-0.5508,-0.6736,0.2323,0.901
18.092,-0.5949,-1.2965,-0.5617,1.533
18.093,-0.7569,-1.7793,-0.7483,2.073
18.093,-0.7711,-2.0049,-0.2951,2.168
18.093,-0.6627,-1.9958,0.3151,2.126
18.093,-0.2988,-1.8174,0.696,1.969
18.094,0.1523,-1.6519,0.869,1.873
18.094,0.5369,-1.3824,0.7328,1.654
18.094,0.6076,-1.0809,0.5595,1.36
18.094,0.4439,-0.9434,0.4843,1.15
18.095,0.158,-0.9073,0.3938,1.002
18.095,-0.2193,-0.941,0.3255,1.02
18.095,-0.5817,-0.9867,0.3002,1.184
18.095,-0.8278,-1.0654,0.2788,1.378
18.096,-0.9206,-1.1145,0.244,1.466
18.096,-0.8803,-1.0622,0.188,1.392
18.096,-0.8555,-0.8341,0.0498,1.196
18.097,-0.7578,-0.5429,0.061,0.934
18.097,-0.6613,-0.3177,0.0558,0.736
18.097,-0.6374,-0.0723,-0.0028,0.641
18.097,-0.7002,0.0832,-0.0386,0.706
18.097,-0.7282,0.1109,-0.2404,0.775
18.098,-0.6645,0.0876,-0.3667,0.764
18.098,-0.5977,0.1018,-0.2711,0.664
18.098,-0.4227,0.0672,-0.0843,0.436
18.098,-0.3045,0.0482,-0.0554,0.313
18.098,-0.1329,0.0352,-0.1283,0.188
18.099,-0.0848,-0.051,-0.2011,0.224
18.099,0.0194,-0.0957,-0.2248,0.245
18.099,-0.0018,-0.1089,-0.2117,0.238
18.099,-0.0908,-0.0743,-0.0831,0.144
18.1,-0.0814,-0.0456,-0.0384,0.101
18.1,-0.0103,-0.008,-0.1154,0.116
18.1,0.1111,-0.0384,-0.0195,0.119
18.1,0.1591,-0.1655,0.0655,0.239
18.1,0.4707,-0.2903,0.0356,0.554
18.101,0.3273,-0.2874,-0.1156,0.451
18.101,0.3367,-0.3622,-0.029,0.495
18.101,0.4512,-0.395,-0.096,0.607
18.101,0.6002,-0.3859,-0.1462,0.728
18.101,0.6714,-0.3013,-0.2091,0.765
18.102,0.6702,-0.0864,-0.3072,0.742
18.102,0.6713,0.1963,-0.383,0.797
18.102,0.6889,0.451,-0.3139,0.881
18.102,0.7304,0.649,-0.0609,0.979
18.103,0.6616,0.7949,0.1881,1.051
18.103,0.4438,0.9392,0.1947,1.057
18.103,0.282,1.0272,0.0429,1.066
18.103,0.1511,0.9948,-0.1128,1.013
18.103,0.0169,0.9,-0.1892,0.92
18.104,-0.059,0.779,-0.1605,0.798
18.104,-0.1395,0.6941,-0.1173,0.718
18.104,-0.2157,0.6525,-0.1002,0.694
18.104,-0.3093,0.6136,-0.1089,0.696
18.104,-0.4287,0.5705,-0.1622,0.732
18.105,-0.5076,0.5043,-0.2051,0.744
18.105,-0.4607,0.4438,-0.1971,0.669
18.105,-0.317,0.3988,-0.1648,0.535
18.105,-0.2583,0.4193,-0.1562,0.517
18.105,-0.2292,0.4289,-0.1717,0.516
18.105,-0.2372,0.4012,-0.2046,0.509
18.106,-0.1914,0.3652,-0.26,0.487
18.106,-0.1296,0.3782,-0.2976,0.498
18.106,-0.1541,0.4183,-0.2621,0.517
18.106,-0.2457,0.4112,-0.1286,0.496
18.106,-0.2939,0.3424,0.0894,0.46
18.106,-0.2603,0.293,0.2352,0.457
18.107,-0.1587,0.2294,0.2491,0.374
18.107,-0.017,0.1584,0.1811,0.241
18.107,0.2876,0.0276,0.1402,0.321
18.107,0.7439,0.0017,0.173,0.764
18.107,0.9234,0.0589,0.1206,0.933
18.107,0.9371,0.1272,-0.0897,0.95
18.108,0.7568,0.0632,-0.3173,0.823
18.108,0.6211,-0.0776,-0.2757,0.684
18.108,0.467,-0.1851,-0.0243,0.503
18.108,0.3013,-0.1615,0.1491,0.373
18.108,0.1376,-0.0667,0.2005,0.252
18.108,-0.0343,-0.0013,0.186,0.189
18.108,-0.1961,0.0088,0.1617,0.254
18.109,-0.3127,-0.0268,0.104,0.331
18.109,-0.3801,-0.0386,0.0417,0.384
18.109,-0.3844,-0.0742,-0.0324,0.393
18.109,-0.2613,-0.1024,-0.0972,0.297
18.109,-0.1228,-0.1449,-0.2083,0.282
18.109,-0.0355,-0.1751,-0.3262,0.372
18.11,-0.0185,-0.1978,-0.2917,0.353
18.11,-0.0145,-0.1888,-0.2658,0.326
18.11,0.1057,-0.1962,-0.2439,0.33
18.11,0.199,-0.1816,-0.1758,0.322
18.11,0.1486,-0.174,-0.1736,0.287
18.11,0.0309,-0.1733,-0.1364,0.223
18.11,-0.0709,-0.2392,-0.0517,0.255
18.111,-0.1567,-0.2953,-0.0744,0.342
18.111,-0.2483,-0.3415,-0.1802,0.459
18.111,-0.3024,-0.4378,-0.2591,0.592
18.111,-0.2375,-0.5099,-0.2589,0.619
18.111,-0.1177,-0.5437,-0.1845,0.586
18.111,-0.0645,-0.4748,-0.2466,0.539
18.112,-0.0033,-0.4204,-0.3619,0.555
18.112,0.0515,-0.4043,-0.3516,0.538
18.112,0.0882,-0.3979,-0.2638,0.485
18.112,0.1356,-0.3677,-0.1176,0.409
18.112,0.1056,-0.3139,0.0824,0.341
18.112,-0.0354,-0.2531,-0.0029,0.256
18.112,-0.1846,-0.2858,-0.0915,0.352
18.113,-0.3236,-0.3781,-0.1212,0.512
18.113,-0.4553,-0.408,-0.1013,0.62
18.113,-0.4938,-0.3709,-0.0223,0.618
18.113,-0.5637,-0.3384,-0.0583,0.66
18.113,-0.5434,-0.3536,-0.1922,0.676
18.113,-0.4999,-0.3972,-0.2014,0.67
18.114,-0.5104,-0.4383,-0.1068,0.681
18.114,-0.4863,-0.4387,0.0397,0.656
18.114,-0.416,-0.4319,0.1022,0.608
18.114,-0.3469,-0.4108,0.0808,0.544
18.114,-0.3744,-0.4186,0.0303,0.562
18.114,-0.4528,-0.4479,-0.0187,0.637
18.115,-0.57,-0.4843,-0.0692,0.751
18.115,-0.604,-0.5301,-0.0759,0.807
18.115,-0.5598,-0.509,-0.0393,0.758
18.115,-0.4109,-0.4256,-0.0286,0.592
18.115,-0.2931,-0.309,0.0231,0.427
18.115,-0.2877,-0.1807,0.0562,0.344
18.116,-0.3754,-0.1268,0.1164,0.413
18.116,-0.4705,-0.1065,0.1468,0.504
18.116,-0.5375,-0.0959,0.1377,0.563
18.116,-0.5837,-0.1306,0.0795,0.603
18.116,-0.5279,-0.1245,0.0172,0.543
18.116,-0.4106,-0.1136,0.0361,0.428
18.116,-0.3605,-0.0331,0.1478,0.391
18.117,-0.4709,0.0353,0.393,0.614
18.117,-0.5074,0.0274,0.0137,0.508
18.117,-0.4076,-0.052,-0.4288,0.594
18.117,-0.2835,-0.1334,-0.4913,0.583
18.117,-0.233,-0.0949,-0.3348,0.419
18.117,-0.2011,-0.0226,-0.1023,0.227
18.118,-0.1376,0.0855,0.1089,0.195
18.118,-0.2889,0.1601,0.2087,0.391
18.118,-0.4951,0.1749,0.2029,0.563
18.118,-0.5919,0.1492,0.1761,0.635
18.118,-0.5751,0.1214,0.1189,0.6
18.118,-0.4161,0.0985,0.0748,0.434
18.118,-0.2437,0.0972,0.1773,0.317
18.119,-0.1556,0.1102,0.4218,0.463
18.119,-0.0297,0.0657,0.1674,0.182
18.119,0.2233,0.0092,-0.0939,0.242
18.119,0.3817,0.0028,-0.0617,0.387
18.119,0.4173,0.0941,0.051,0.431
18.119,0.3543,0.1347,-0.0449,0.382
18.12,0.3025,0.1654,-0.1483,0.375
18.12,0.271,0.1744,-0.1445,0.353
18.12,0.312,0.1856,0.1269,0.385
18.12,0.2459,0.2419,0.6521,0.738
18.12,0.0895,0.293,0.5572,0.636
18.12,-0.0328,0.2672,0.2872,0.394
18.12,-0.1855,0.1958,0.0252,0.271
18.121,-0.3377,0.1508,-0.1026,0.384
18.121,-0.48,0.1679,0.049,0.511
18.121,-0.5224,0.233,0.1242,0.585
18.121,-0.305,0.2814,0.0181,0.415
18.121,-0.0335,0.3178,0.2566,0.41
18.121,0.0078,0.4426,0.3787,0.583
18.122,-0.0834,0.5482,0.2176,0.596
18.122,-0.0751,0.5486,-0.0165,0.554
18.122,-0.0844,0.5157,-0.1114,0.534
18.122,-0.0875,0.5668,-0.5171,0.772
18.122,-0.0125,0.5942,-0.644,0.876
18.122,0.0115,0.5862,-0.6076,0.844
18.122,0.0087,0.5428,-0.8721,1.027
18.123,0.0439,0.5214,-0.991,1.121
18.123,-0.0577,0.4958,-0.8502,0.986
18.123,-0.2482,0.4182,-0.4281,0.648
18.123,-0.3369,0.3412,0.0566,0.483
18.123,-0.2399,0.2239,0.3565,0.485
18.123,-0.1478,0.1426,0.3505,0.406
18.124,-0.153,0.0326,0.1412,0.211
18.124,-0.1954,-0.0775,0.0147,0.211
18.124,-0.0474,-0.1898,0.0753,0.21
18.124,0.0618,-0.2305,0.1724,0.294
18.124,0.0608,-0.262,0.2346,0.357
18.124,0.0283,-0.2986,0.3297,0.446
18.124,-0.0288,-0.3379,0.351,0.488
18.125,-0.2136,-0.3204,0.2805,0.476
18.125,-0.376,-0.301,0.2796,0.557
18.125,-0.4548,-0.263,0.4352,0.682
18.125,-0.4145,-0.2088,0.7383,0.872
18.125,-0.5494,-0.2916,1.7156,1.825
18.126,-0.807,-0.1935,1.291,1.535
18.126,-0.7161,-0.1893,0.9223,1.183
18.126,-0.5897,-0.2788,1.0188,1.21
18.126,-0.5041,-0.2873,1.3814,1.498
18.126,-0.6124,-0.1194,1.0513,1.223
18.126,-0.6825,0.0433,0.5328,0.867
18.127,-0.6237,0.1294,-0.149,0.654
18.127,-0.3212,0.1438,-0.5846,0.682
18.127,1.705,0.4738,-1.9155,2.608
18.127,1.7442,0.7073,-3.9559,4.381
18.127,0.7199,0.3024,-4.3314,4.401
18.128,-0.4663,-0.1797,-2.6451,2.692
18.128,-0.9405,-0.2196,-0.1688,0.98
18.128,-0.588,0.3181,1.1525,1.332
18.128,-0.058,0.6601,0.5664,0.872
18.128,0.3637,0.3903,-0.3895,0.661
18.128,0.3782,0.0089,-0.7658,0.854
18.129,-0.0705,-0.1639,-0.5528,0.581
18.129,-0.4465,-0.1067,-0.1744,0.491
18.129,-0.4824,-0.1542,0.048,0.509
18.129,-0.4662,-0.2637,0.1465,0.555
18.129,-0.4806,-0.3685,0.1758,0.631
18.129,-0.5128,-0.4064,0.2074,0.686
18.13,-0.4765,-0.3683,0.2609,0.656
18.13,-0.3837,-0.3234,0.288,0.579
18.13,-0.2699,-0.3196,0.2866,0.507
18.13,-0.221,-0.3115,0.2686,0.467
18.13,-0.2681,-0.3088,0.2415,0.475
18.131,-0.3947,-0.3184,0.2723,0.576
18.131,-0.5347,-0.314,0.3947,0.735
18.131,-0.5837,-0.2787,0.4563,0.792
18.131,-0.6139,-0.1959,0.4192,0.769
18.131,-0.5709,-0.1179,0.3432,0.676
18.131,-0.4981,-0.064,0.2399,0.557
18.132,-0.4384,-0.0243,0.0996,0.45
18.132,-0.423,0.0179,-0.0183,0.424
18.132,-0.4325,0.0363,-0.0856,0.442
18.132,-0.4289,0.0262,-0.1407,0.452
18.132,-0.374,0.0905,-0.2246,0.446
18.132,-0.2702,0.1575,-0.3019,0.435
18.133,-0.2488,0.1889,-0.3034,0.435
18.133,-0.2879,0.1799,-0.2004,0.394
18.133,-0.323,0.1664,-0.0977,0.376
18.133,-0.3396,0.1362,-0.026,0.367
18.133,-0.3783,0.1086,-0.0043,0.394
18.133,-0.4605,0.0715,0.0033,0.466
18.133,-0.5025,0.0202,-0.0512,0.506
18.134,-0.4922,-0.081,-0.1826,0.531
18.134,-0.3699,-0.1771,-0.2118,0.462
18.134,-0.1427,-0.2538,-0.2183,0.364
18.134,0.0918,-0.2826,-0.2044,0.361
18.134,0.279,-0.2443,-0.1702,0.408
18.134,0.4316,-0.1895,-0.1156,0.485
18.135,0.4853,-0.1422,-0.0287,0.507
18.135,0.3664,-0.0952,-0.005,0.379
18.135,0.1202,-0.1202,0.0083,0.17
18.135,-0.0335,-0.1836,0.0635,0.197
18.135,-0.0831,-0.223,0.0912,0.255
18.135,-0.1174,-0.1931,0.1011,0.248
18.136,-0.1391,-0.0891,0.1148,0.201
18.136,-0.1557,-0.0521,0.1207,0.204
18.136,-0.1435,-0.0295,0.129,0.195
18.136,-0.1316,-0.0332,0.1064,0.172
18.136,-0.1347,-0.0298,0.0186,0.139
18.136,-0.0974,-0.0336,0.0031,0.103
18.136,-0.0915,-0.0135,0.0076,0.093
18.137,-0.1795,0.0255,0.0519,0.189
18.137,-0.3254,0.0549,0.121,0.352
18.137,-0.3392,0.0532,0.1789,0.387
18.137,-0.2069,0.0632,0.1924,0.289
18.137,0.0624,0.0825,0.1473,0.18
18.137,0.3906,0.1134,0.0689,0.413
18.137,0.6924,0.1439,0.0187,0.707
18.138,0.8685,0.1715,-0.0232,0.886
18.138,0.8742,0.2226,-0.0601,0.904
18.138,0.7696,0.254,-0.0592,0.813
18.138,0.5714,0.2303,0.015,0.616
18.138,0.3892,0.2183,0.1051,0.458
18.138,0.194,0.2205,0.125,0.319
18.139,0.0164,0.2443,0.1201,0.273
18.139,-0.1253,0.2395,0.1097,0.292
18.139,-0.2005,0.2732,0.0914,0.351
18.139,-0.2169,0.2785,0.0848,0.363
18.139,-0.2367,0.296,0.0638,0.384
18.139,-0.2123,0.3064,0.0216,0.373
18.14,-0.1866,0.2812,-0.0297,0.339
18.14,-0.1788,0.2658,-0.0037,0.32
18.14,-0.1722,0.2337,0.073,0.299
18.14,-0.1691,0.2138,0.0884,0.287
18.14,-0.1695,0.1724,0.0977,0.261
18.14,-0.0966,0.1431,0.072,0.187
18.14,-0.0364,0.1187,0.0568,0.136
18.141,0.0428,0.1109,0.0014,0.119
18.141,0.1172,0.0911,-0.0201,0.15
18.141,0.1177,0.045,-0.0271,0.129
18.141,0.133,-0.0083,0.0044,0.133
18.141,0.2014,-0.0187,-0.0022,0.202
18.141,0.2849,-0.0102,-0.0585,0.291
18.142,0.3168,0.0148,-0.105,0.334
18.142,0.3474,0.0562,-0.149,0.382
18.142,0.3337,0.0854,-0.1311,0.369
18.142,0.2639,0.1144,-0.1136,0.309
18.142,0.1139,0.1575,-0.142,0.241
18.142,-0.0686,0.179,-0.2283,0.298
18.142,-0.1956,0.1695,-0.2675,0.372
18.143,-0.289,0.1506,-0.2382,0.404
18.143,-0.3658,0.1246,-0.1784,0.426
18.143,-0.4098,0.0965,-0.1238,0.439
18.143,-0.4212,0.0544,-0.1364,0.446
18.143,-0.3763,0.0245,-0.2781,0.469
18.143,-0.2679,-0.0123,-0.468,0.539
18.144,-0.1679,-0.0725,-0.489,0.522
18.144,-0.1213,-0.1276,-0.3603,0.401
18.144,-0.1448,-0.2183,-0.1842,0.32
18.144,-0.1663,-0.2418,-0.0776,0.304
18.144,-0.2169,-0.2917,-0.0396,0.366
18.144,-0.2795,-0.3295,-0.1109,0.446
18.145,-0.2729,-0.3817,-0.2677,0.54
18.145,-0.1369,-0.4172,-0.3334,0.551
18.145,-0.0436,-0.4408,-0.3109,0.541
18.145,-0.0547,-0.4262,-0.1594,0.458
18.145,-0.0865,-0.3904,-0.0101,0.4
18.145,-0.0983,-0.3454,0.0919,0.371
18.146,-0.1307,-0.2935,0.0991,0.336
18.146,-0.1238,-0.2683,0.0568,0.301
18.146,-0.1352,-0.2266,0.0125,0.264
18.146,-0.1315,-0.1661,-0.0031,0.212
18.146,-0.17,-0.12,-0.0308,0.21
18.146,-0.2653,-0.0741,-0.078,0.286
18.146,-0.2838,-0.0736,-0.1354,0.323
18.147,-0.2784,-0.0969,-0.1123,0.315
18.147,-0.3209,-0.1105,-0.1331,0.365
18.147,-0.3732,-0.1095,-0.0829,0.398
18.147,-0.3618,-0.0916,-0.0714,0.38
18.147,-0.3346,-0.0543,0.0191,0.34
18.147,-0.3132,-0.0098,0.0716,0.321
18.147,-0.3191,0.0228,0.0623,0.326
18.147,-0.2567,0.003,-0.0063,0.257
18.148,-0.2021,-0.0118,-0.0559,0.21
18.148,-0.1528,-0.0121,-0.0536,0.162
18.148,-0.1659,-0.0004,-0.078,0.183
18.148,-0.2152,-0.0172,-0.0167,0.217
18.148,-0.2764,-0.0602,0.0538,0.288
18.148,-0.3118,-0.0983,0.0623,0.333
18.148,-0.3211,-0.1483,0.0465,0.357
18.148,-0.2708,-0.1622,0.0303,0.317
18.149,-0.2565,-0.1952,0.0446,0.325
18.149,-0.3065,-0.2041,0.0823,0.377
18.149,-0.4235,-0.2059,0.1821,0.505
18.149,-0.5049,-0.2077,0.2704,0.609
18.149,-0.4768,-0.3218,0.2375,0.622
18.149,-0.4103,-0.4716,0.2366,0.668
18.149,-0.2285,-0.5714,0.3104,0.689
18.149,-0.0319,-0.5972,0.3919,0.715
18.15,-0.0785,-0.5203,0.2994,0.605
18.15,-0.3756,-0.3075,0.0662,0.49
18.15,-0.5263,-0.1714,-0.0812,0.559
18.15,-0.4593,-0.1716,0.0123,0.491
18.15,-0.428,-0.1241,0.2273,0.5
18.15,-0.4782,-0.0288,0.3779,0.61
18.15,-0.4596,0.033,0.3711,0.592
18.15,-0.4701,0.0804,0.2956,0.561
18.15,-0.4351,0.0823,0.2588,0.513
18.151,-0.2849,0.0482,0.2794,0.402
18.151,-0.1176,-0.0409,0.4315,0.449
18.151,0.0787,-0.1277,0.6457,0.663
18.151,0.0462,-0.2026,0.64,0.673
18.151,-0.2907,-0.0722,0.1755,0.347
18.151,-0.4153,0.0674,-0.2587,0.494
18.151,-0.3067,0.0132,-0.3027,0.431
18.151,-0.4983,0.1001,-0.0114,0.508
18.152,-0.8116,0.3184,0.1619,0.887
18.152,-0.7933,0.4194,0.3687,0.97
18.152,-0.7116,0.4703,0.4139,0.948
18.152,-0.6406,0.5093,0.324,0.88
18.152,-0.5903,0.5412,0.2854,0.85
18.152,-0.4867,0.5543,0.3191,0.804
18.152,-0.4021,0.6132,0.3483,0.812
18.152,-0.2435,0.7227,0.3918,0.857
18.153,-0.116,0.7776,0.3301,0.853
18.153,-0.1026,0.8185,0.2081,0.851
18.153,-0.1599,0.8813,0.1711,0.912
18.153,-0.2086,0.856,0.1757,0.898
18.153,-0.3298,0.7091,0.303,0.839
18.153,-0.3257,0.6801,0.4168,0.862
18.153,-0.2957,0.6847,0.5748,0.942
18.153,-0.4042,0.601,0.7227,1.023
18.154,-0.4306,0.5147,0.72,0.984
18.154,-0.2452,0.3399,0.7797,0.885
18.154,-0.0982,0.1718,0.9787,0.998
18.154,-0.2258,0.1394,1.0375,1.071
18.154,-0.3288,0.1349,0.9086,0.976
18.154,-0.3044,0.0772,0.7018,0.769
18.154,-0.3131,-0.0122,0.5958,0.673
18.155,-0.3509,-0.0709,0.6309,0.725
18.155,-0.3992,-0.0653,0.7091,0.816
18.155,-0.3899,-0.0574,0.8357,0.924
18.155,-0.376,-0.0066,0.9584,1.03
18.155,-0.3962,0.0418,0.9963,1.073
18.155,-0.4241,0.0376,0.9803,1.069
18.155,-0.3833,-0.0311,0.9579,1.032
18.156,-0.3975,-0.0973,0.9287,1.015
18.156,-0.4637,-0.099,0.866,0.987
18.156,-0.5387,-0.1128,0.8579,1.019
18.156,-0.6176,-0.1601,0.9184,1.118
18.156,-0.6673,-0.2098,1.0209,1.238
18.156,-0.7098,-0.2569,1.02,1.269
18.156,-0.6973,-0.3206,0.9014,1.184
18.156,-0.6351,-0.3865,0.8804,1.152
18.157,-0.5519,-0.4402,0.926,1.164
18.157,-0.4765,-0.4603,0.9716,1.176
18.157,-0.4617,-0.5089,0.9556,1.177
18.157,-0.6056,-0.5979,0.8901,1.232
18.157,-0.5068,-0.3807,0.8278,1.043
18.157,-0.5018,-0.3478,0.8786,1.07
18.157,-0.5378,-0.3819,0.9567,1.162
18.157,-0.5456,-0.5282,0.9494,1.216
18.158,-0.4607,-0.5571,0.8471,1.114
18.158,-0.3545,-0.5453,0.721,0.971
18.158,-0.3079,-0.5193,0.6615,0.896
18.158,-0.3849,-0.51,0.6228,0.892
18.158,-0.4612,-0.5008,0.452,0.817
18.158,-0.451,-0.5586,0.2946,0.776
18.158,-0.4476,-0.6114,0.2866,0.81
18.159,-0.4344,-0.5996,0.3444,0.817
18.159,-0.414,-0.5161,0.3799,0.763
18.159,-0.403,-0.3897,0.3461,0.659
18.159,-0.3657,-0.285,0.2813,0.542
18.159,-0.3402,-0.1613,0.2097,0.431
18.159,-0.3647,-0.0833,0.1047,0.388
18.159,-0.377,-0.0149,-0.0126,0.377
18.159,-0.3436,-0.0063,-0.1093,0.361
18.16,-0.3555,-0.0717,-0.1786,0.404
18.16,-0.3552,-0.082,-0.1804,0.407
18.16,-0.3089,-0.0228,-0.1432,0.341
18.16,-0.1377,-0.0379,-0.1173,0.185
18.16,0.0106,-0.0889,-0.1793,0.2
18.16,0.0714,-0.0897,-0.2909,0.313
18.16,0.0424,-0.0737,-0.4643,0.472
18.16,0.0454,-0.0625,-0.585,0.59
18.161,0.0107,-0.0583,-0.7151,0.718
18.161,-0.057,-0.1902,-0.8168,0.841
18.161,-0.0598,-0.1591,-0.8209,0.838
18.161,0.1029,-0.0012,-0.7484,0.755
18.161,0.1828,0.2234,-0.7061,0.763
18.161,0.1734,0.2827,-0.6189,0.702
18.161,0.146,0.3154,-0.6297,0.719
18.161,0.1692,0.3241,-0.8396,0.916
18.162,0.2287,0.1941,-1.042,1.084
18.162,0.1808,-0.11,-1.106,1.126
18.162,0.0396,-0.3777,-1.1424,1.204
18.162,-0.1868,-0.6494,-1.2373,1.41
18.162,-0.0954,-0.8942,-1.336,1.61
18.162,-0.0499,-1.0761,-1.2782,1.672
18.162,-0.4383,-1.0494,-1.3529,1.767
18.163,-0.7518,-0.6878,-1.453,1.775
18.163,-0.8922,-0.4386,-1.4212,1.734
18.163,-0.6899,-0.1631,-1.5128,1.671
18.163,-0.2757,0.0117,-1.6198,1.643
18.163,0.2091,0.1743,-1.338,1.365
18.163,0.0932,0.4013,-1.0562,1.134
18.164,-0.3326,0.4037,-1.0501,1.173
18.164,-0.2001,0.535,-1.0538,1.199
18.164,0.064,0.5366,-1.1038,1.229
18.164,-0.6925,0.1767,-1.2025,1.399
18.164,-0.3994,0.0551,-1.0995,1.171
18.164,0.1312,-0.3069,-0.8794,0.941
18.164,-0.1145,-0.149,-0.6241,0.652
18.164,-0.0197,0.2995,-0.6931,0.755
18.165,0.6561,0.5946,-1.0069,1.341
18.165,1.2706,0.771,-1.0657,1.829
18.165,1.0719,0.937,-1.1001,1.799
18.165,0.7597,0.8034,-0.9336,1.447
18.165,0.6168,0.5783,-0.4751,0.97
18.165,0.2695,0.6205,-0.2026,0.706
18.165,0.0183,0.5974,-0.2686,0.655
18.165,0.3162,0.6285,-0.4141,0.816
18.166,0.6641,0.5844,-0.4548,0.995
18.166,-1.9369,-0.1926,-1.4809,2.446
18.166,-1.3627,-0.7583,-1.264,2.007
18.166,-0.9614,-0.5094,-1.0696,1.526
18.166,-1.0039,-0.2259,-1.0525,1.472
18.166,-0.5631,-0.3445,-0.8715,1.093
18.166,-0.169,-0.2711,-0.8318,0.891
18.166,0.0974,-0.1778,-0.5416,0.578
18.167,0.8519,-0.1693,0.0958,0.874
18.167,1.2107,0.4556,0.6646,1.454
18.167,1.8756,1.0797,0.0575,2.165
18.167,2.5913,1.385,0.1114,2.94
18.167,1.9637,1.451,-0.0622,2.442
18.167,0.8144,1.2009,0.0216,1.451
18.167,1.2817,0.6814,0.9726,1.747
18.168,0.9713,0.227,1.3075,1.645
18.168,0.4142,0.2842,0.7125,0.872
18.168,1.2252,0.0825,-0.2151,1.247
18.168,1.3206,-0.3989,-0.6914,1.543
18.168,0.7741,-0.6819,-0.6299,1.209
18.168,0.8734,-0.9556,-0.4395,1.367
18.168,0.9131,-1.2991,-0.223,1.603
18.168,0.6985,-1.2487,-0.2595,1.454
18.169,0.7655,-1.0202,-0.1473,1.284
18.169,0.626,-0.6041,-0.173,0.887
18.169,0.6649,-0.359,-0.0049,0.756
18.169,0.6949,-0.0719,0.2278,0.735
18.169,0.7574,0.1904,0.3456,0.854
18.169,0.8772,0.3256,0.2164,0.96
18.169,0.9285,0.3412,0.1599,1.002
18.169,0.9777,0.2997,0.2259,1.047
18.17,0.8375,0.1752,0.1718,0.873
18.17,0.7402,0.1517,0.0735,0.759
18.17,0.7988,0.1074,0.0883,0.811
18.17,0.8419,0.0828,-0.0644,0.848
18.17,0.9376,0.0732,-0.2029,0.962
18.17,0.9097,0.0425,-0.2535,0.945
18.17,0.6961,0.053,-0.2118,0.73
18.17,0.4189,0.0377,-0.0872,0.43
18.17,0.1537,0.0588,0.0082,0.165
18.171,0.0862,0.097,0.1056,0.167
18.171,-0.0351,0.1166,-0.0195,0.123
18.171,0.0521,0.1799,-0.0782,0.203
18.171,-0.0179,0.1456,-0.1061,0.181
18.171,0.0655,0.1358,0.0429,0.157
18.171,0.149,0.0355,0.2069,0.257
18.171,0.1227,-0.0045,0.1715,0.211
18.171,0.3904,-0.0346,0.1904,0.436
18.171,0.2929,0.0144,0.1921,0.351
18.172,0.1772,0.128,0.3203,0.388
18.172,0.1129,0.1364,0.3912,0.429
18.172,0.2333,0.2167,0.3138,0.447
18.172,0.5727,0.1561,0.2693,0.652
18.172,0.5105,0.141,0.2885,0.603
18.173,0.5041,0.0998,0.3524,0.623
18.173,0.4844,0.0299,0.3514,0.599
18.173,0.3563,-0.1093,0.1493,0.401
18.173,0.4995,-0.1072,-0.1639,0.537
18.173,0.1735,0.0481,0.14,0.228
18.173,-0.1629,0.0837,0.5237,0.555
18.173,-0.1218,0.2413,0.5794,0.639
18.173,-0.0265,0.4538,0.4868,0.666
18.173,0.0338,0.5492,0.4648,0.72
18.174,-0.2922,0.7597,0.355,0.888
18.174,-0.1319,0.7721,0.284,0.833
18.174,0.2586,0.5889,0.2806,0.702
18.174,0.4045,0.545,0.2755,0.733
18.174,0.5025,0.241,0.6158,0.831
18.174,0.4189,0.0902,0.657,0.784
18.174,0.3886,0.071,0.7159,0.818
18.174,0.1916,0.1733,0.8123,0.852
18.175,0.1095,0.3468,0.6842,0.775
18.175,0.1277,0.4766,0.0355,0.495
18.175,0.3775,0.489,-0.2452,0.665
18.175,0.2542,0.5299,-0.4006,0.711
18.175,0.2337,0.2503,-0.1196,0.363
18.175,0.2221,-0.1725,0.2062,0.349
18.175,-0.3041,-1.1212,0.9203,1.482
18.175,-0.2339,-1.3026,1.3913,1.92
18.175,-0.1477,-1.1576,1.8911,2.222
18.176,0.0109,-0.7874,2.088,2.232
18.176,0.2212,-0.4669,2.0103,2.076
18.176,0.3377,-0.136,1.6488,1.688
18.176,0.2739,0.3638,-0.0393,0.457
18.176,0.1755,0.7849,-2.3102,2.446
18.176,-0.0488,0.8582,-4.0962,4.185
18.177,-0.2436,0.7448,-4.5049,4.573
18.177,-0.1826,0.4854,-3.5941,3.631
18.177,-0.0744,0.1321,-2.2574,2.262
18.177,-0.0814,-0.2728,-1.0588,1.096
18.177,-0.2124,-0.4839,-0.2593,0.589
18.177,-0.3951,-0.5281,-0.0047,0.66
18.177,-0.5221,-0.4892,-0.0147,0.716
18.178,-0.5604,-0.379,-0.0609,0.679
18.178,-0.5366,-0.2523,-0.0324,0.594
18.178,-0.4866,-0.0898,0.0796,0.501
18.178,-0.4794,-0.0518,0.3345,0.587
18.178,-0.5389,0.0865,0.424,0.691
18.178,-0.6124,0.2295,0.2791,0.711
18.178,-0.5516,0.2096,0.0198,0.59
18.178,-0.464,0.0941,-0.1361,0.493
18.178,-0.3612,-0.0142,-0.1796,0.404
18.179,-0.3032,-0.1153,-0.051,0.328
18.179,-0.3065,-0.1686,0.0174,0.35
18.179,-0.3666,-0.1597,-0.0532,0.403
18.179,-0.3832,-0.1484,-0.1336,0.432
18.179,-0.3657,-0.1611,-0.147,0.426
18.179,-0.3931,-0.0902,-0.1535,0.432
18.179,-0.4103,-0.029,-0.0548,0.415
18.179,-0.3765,0.0057,-0.0925,0.388
18.18,-0.2893,-0.0003,-0.0944,0.304
18.18,-0.2087,-0.0375,-0.0508,0.218
18.18,-0.2803,-0.0294,0.0358,0.284
18.18,-0.2698,0.0216,0.1678,0.318
18.18,-0.318,0.0341,0.3117,0.447
18.18,-0.3174,0.0058,0.4055,0.515
18.18,-0.206,0.0227,0.3944,0.446
18.18,-0.0868,0.0682,0.3504,0.367
18.18,-0.0559,0.0322,0.3522,0.358
18.181,0.0495,0.0846,0.2754,0.292
18.181,0.1072,0.1273,0.1819,0.247
18.181,0.1242,0.1604,0.0862,0.22
18.181,0.1749,0.215,-0.0023,0.277
18.181,0.1945,0.2432,-0.0623,0.318
18.181,0.1905,0.1496,-0.0579,0.249
18.181,0.1652,0.0752,-0.1253,0.221
18.181,0.1354,0.008,-0.1952,0.238
18.182,0.1198,-0.0566,-0.2986,0.327
18.182,0.1567,-0.1091,-0.366,0.413
18.182,0.2028,-0.1686,-0.3381,0.429
18.182,0.2458,-0.2256,-0.2364,0.409
18.182,0.2331,-0.2894,-0.1472,0.4
18.182,0.2103,-0.3553,-0.0278,0.414
18.182,0.2155,-0.3898,0.0478,0.448
18.182,0.1798,-0.3262,0.1561,0.404
18.182,0.1487,-0.2076,0.3406,0.426
18.183,0.1057,0.0232,0.47,0.482
18.183,0.0168,0.2369,0.5425,0.592
18.183,-0.0891,0.3618,0.5634,0.675
18.183,-0.0679,0.4241,0.6456,0.775
18.183,0.104,0.4739,0.5429,0.728
18.183,0.1734,0.4755,0.4158,0.655
18.183,0.1548,0.4003,0.3165,0.533
18.183,0.1868,0.2843,0.259,0.428
18.183,0.2642,0.1301,0.2975,0.419
18.184,0.2936,0.0789,0.3027,0.429
18.184,0.3012,0.1425,0.2217,0.4
18.184,0.2776,0.2156,0.1143,0.37
18.184,0.3066,0.1692,0.0737,0.358
18.184,0.3527,0.1038,0.045,0.37
18.184,0.3301,-0.0071,0.0447,0.333
18.184,0.3602,-0.0962,0.0898,0.384
18.185,0.3161,-0.0514,0.1275,0.345
18.185,0.5034,-0.0137,0.2966,0.584
18.185,0.5683,0.019,0.3751,0.681
18.185,0.3491,0.14,0.0506,0.38
18.185,0.2713,0.1363,-0.0457,0.307
18.185,0.0757,0.0872,0.0211,0.117
18.185,-0.1328,0.098,0.1672,0.235
18.185,-0.1967,0.2093,0.2465,0.378
18.186,-0.1832,0.311,0.2758,0.454
18.186,-0.2335,0.3386,0.2287,0.471
18.186,-0.192,0.1297,0.268,0.354
18.186,-0.1728,-0.1314,0.3361,0.4
18.186,-0.3877,-0.2394,0.4619,0.649
18.186,-0.3216,-0.3331,1.1474,1.237
18.186,-0.2192,-0.1622,1.6309,1.653
18.186,-0.2812,0.077,1.1387,1.175
18.186,-0.2797,0.1745,0.8946,0.953
18.187,-0.5691,0.1355,0.5032,0.772
18.187,-1.0287,0.3998,0.2152,1.124
18.187,-1.0845,0.4394,0.0323,1.171
18.187,-0.9035,0.3048,-0.1006,0.959
18.187,-0.0867,0.0464,-0.1117,0.149
18.187,0.2781,-0.0632,-0.324,0.432
18.187,0.0991,-0.0913,-0.4025,0.424
18.187,-0.0537,-0.1742,-0.2876,0.341
18.187,-0.1047,-0.2569,-0.1133,0.3
18.188,-0.1575,-0.2747,-0.0154,0.317
18.188,-0.042,-0.2613,-0.0105,0.265
18.188,0.0964,-0.2072,-0.0057,0.229
18.188,0.0768,-0.2009,0.047,0.22
18.188,0.1792,-0.2306,0.2191,0.365
18.188,0.492,-0.2841,0.3076,0.646
18.188,0.7209,-0.3184,0.2933,0.841
18.188,0.8544,-0.3074,0.2243,0.935
18.188,0.8883,-0.2654,0.2507,0.96
18.189,0.9375,-0.1877,0.3178,1.007
18.189,0.7869,-0.0243,0.2777,0.835
18.189,0.2579,0.1483,0.1856,0.351
18.189,-0.379,0.3586,0.092,0.53
18.189,-0.6608,0.4943,0.078,0.829
18.189,-0.6294,0.5702,-0.0192,0.849
18.189,-0.4361,0.548,-0.1377,0.714
18.189,-0.2557,0.4543,-0.2515,0.579
18.189,-0.1429,0.3561,-0.3872,0.545
18.19,-0.1023,0.2438,-0.4612,0.532
18.19,-0.0426,0.1438,-0.4594,0.483
18.19,-0.0141,0.0536,-0.3792,0.383
18.19,0.0526,-0.0365,-0.2422,0.251
18.19,0.1744,-0.0428,-0.1296,0.221
18.19,0.3367,-0.0036,-0.0053,0.337
18.19,0.5132,0.0356,0.0731,0.52
18.19,0.5586,0.0938,0.1682,0.591
18.19,0.4658,0.0634,0.2846,0.55
18.19,0.3832,0.0498,0.3531,0.523
18.191,0.2726,-0.0093,0.4027,0.486
18.191,0.1722,-0.0398,0.376,0.415
18.191,0.1702,-0.0583,0.266,0.321
18.191,0.0968,-0.0936,0.2161,0.255
18.191,0.0141,-0.0859,0.1542,0.177
18.191,-0.0952,-0.0327,0.1262,0.161
18.191,-0.1978,0.0109,0.1222,0.233
18.191,-0.2388,-0.0482,0.123,0.273
18.191,-0.2515,-0.1741,0.1883,0.359
18.192,-0.2714,-0.2639,0.3513,0.516
18.192,-0.241,-0.2987,0.4474,0.589
18.192,-0.2365,-0.4077,0.5247,0.705
18.192,-0.2436,-0.3971,0.5356,0.71
18.192,-0.2219,-0.2408,0.5088,0.605
18.192,-0.3627,-0.1255,0.4898,0.622
18.192,-0.3866,0.0352,0.1652,0.422
18.192,-0.3321,-0.0241,-0.059,0.338
18.192,-0.0676,-0.2075,-0.1353,0.257
18.192,0.1802,-0.3141,-0.1572,0.395
18.193,-0.0256,-0.3034,0.121,0.328
18.193,-0.384,-0.1061,0.4601,0.609
18.193,-0.5132,0.0789,0.3121,0.606
18.193,-0.4425,0.1705,0.0739,0.48
18.193,-0.2458,0.1427,-0.2006,0.348
18.193,-0.0683,0.1101,-0.3862,0.407
18.193,0.1171,0.1065,-0.5239,0.547
18.193,0.1529,0.0313,-0.3504,0.384
18.193,0.2566,0.0279,-0.2928,0.39
18.194,0.177,0.034,-0.0901,0.202
18.194,0.0361,0.1237,0.0219,0.131
18.194,-0.0995,0.1869,0.0028,0.212
18.194,-0.1966,0.2285,-0.0686,0.309
18.194,-0.344,0.2486,-0.1213,0.441
18.194,-0.6972,0.1039,0.1386,0.718
18.194,-0.3389,0.1554,-0.2328,0.44
18.194,-0.2127,0.0469,-0.1648,0.273
18.194,-0.3109,-0.0471,-0.0712,0.322
18.195,-0.4209,-0.1004,-0.045,0.435
18.195,-0.5118,-0.0818,-0.093,0.527
18.195,-0.5383,-0.0393,-0.1437,0.559
18.195,-0.6513,-0.0231,0.0564,0.654
18.195,-0.9992,-0.0522,0.3712,1.067
18.195,-0.8603,0.1362,-0.0378,0.872
18.195,-0.5719,0.1548,-0.217,0.631
18.195,-0.4701,0.0874,-0.1863,0.513
18.196,-0.4755,0.0106,-0.1898,0.512
18.196,-0.4538,-0.0135,-0.1416,0.476
18.196,-0.477,-0.0328,-0.0486,0.481
18.196,-0.4926,-0.0473,0.0007,0.495
18.196,-0.5005,-0.0522,0.0426,0.505
18.196,-0.5511,-0.1623,0.2325,0.62
18.196,-0.3985,-0.0166,-0.0194,0.399
18.196,-0.3412,0.0165,-0.123,0.363
18.197,-0.2856,0.0473,-0.0932,0.304
18.197,-0.215,0.0947,-0.0592,0.242
18.197,-0.0792,0.142,0.0031,0.163
18.197,-0.0911,0.1175,0.1751,0.23
18.197,-0.1953,0.0333,0.4139,0.459
18.197,-0.1721,0.0828,0.3736,0.42
18.197,-0.0959,0.0604,0.3889,0.405
18.197,-0.0551,0.0165,0.4262,0.43
18.197,-0.0786,0.006,0.4354,0.442
18.197,-0.0993,0.0552,0.3853,0.402
18.198,-0.0838,0.0875,0.338,0.359
18.198,-0.1157,0.0648,0.303,0.331
18.198,-0.2024,0.0062,0.2252,0.303
18.198,-0.3059,-0.0714,0.143,0.345
18.198,-0.3384,-0.1226,0.0469,0.363
18.198,-0.3552,-0.1139,-0.0704,0.38
18.198,-0.3372,-0.1028,-0.1755,0.394
18.198,-0.239,-0.0892,-0.2064,0.328
18.198,-0.1489,-0.0755,-0.0892,0.189
18.199,-0.0833,-0.014,0.0446,0.095
18.199,-0.0874,0.0427,0.1521,0.181
18.199,-0.0562,0.1136,0.1883,0.227
18.199,0.0463,0.1652,0.139,0.221
18.199,0.1508,0.2861,-0.0627,0.329
18.199,0.0545,0.175,-0.0346,0.187
18.199,-0.1397,0.107,-0.1017,0.203
18.199,-0.2744,0.0965,-0.1734,0.339
18.199,-0.3331,0.0788,-0.1658,0.38
18.199,-0.3759,0.1162,-0.2225,0.452
18.2,-0.3763,0.0603,-0.1595,0.413
18.2,-0.2676,0.0643,-0.1393,0.308
18.2,-0.1952,0.0421,-0.1047,0.225
18.2,-0.2283,0.027,-0.0459,0.234
18.2,-0.2477,-0.0024,-0.0228,0.249
18.2,-0.2128,0.0184,0.0293,0.216
18.2,-0.2075,0.0178,0.0242,0.21
18.2,-0.0693,0.0555,0.0337,0.095
18.2,0.0899,0.1337,-0.0212,0.163
18.201,0.1891,0.1283,0.0409,0.232
18.201,0.1118,0.1323,0.0766,0.189
18.201,0.1809,0.1364,0.0716,0.238
18.201,0.043,0.1308,0.0548,0.148
18.201,-0.068,0.1132,0.0045,0.132
18.201,-0.3003,0.153,-0.0097,0.337
18.201,-0.3363,0.1831,-0.0952,0.395
18.201,-0.3174,0.2418,-0.1757,0.436
18.201,-0.3463,0.2145,-0.146,0.433
18.202,-0.2628,0.2062,-0.102,0.349
18.202,-0.2269,0.1359,-0.008,0.265
18.202,-0.2171,0.0967,0.0906,0.254
18.202,-0.2644,0.0265,0.1604,0.31
18.202,-0.2731,0.028,0.0773,0.285
18.202,-0.351,0.0773,-0.0941,0.371
18.202,-0.5986,0.0191,-0.0788,0.604
18.202,-0.5576,0.0446,-0.3361,0.653
18.202,-0.4742,-0.0254,-0.3857,0.612
18.202,-0.499,-0.1215,-0.2568,0.574
18.203,-0.534,-0.1599,-0.143,0.575
18.203,-0.4908,-0.172,-0.0823,0.527
18.203,-0.4124,-0.1672,-0.065,0.45
18.203,-0.4706,-0.1003,-0.031,0.482
18.203,-0.2785,-0.0669,-0.0492,0.291
18.203,-0.1487,-0.012,-0.0717,0.166
18.203,-0.0949,0.0546,-0.1509,0.186
18.203,-0.2268,0.1067,-0.1722,0.304
18.203,-0.4489,0.1395,-0.193,0.508
18.204,-0.6204,0.1102,-0.2804,0.69
18.204,-0.8136,-0.0004,-0.3773,0.897
18.204,-0.7444,-0.0342,-0.5626,0.934
18.204,-0.6756,-0.0727,-0.593,0.902
18.204,-0.7193,-0.0633,-0.5045,0.881
18.204,-0.7368,0.0154,-0.4569,0.867
18.204,-0.6545,0.0989,-0.4761,0.815
18.205,-0.2689,0.1416,-0.5216,0.604
18.205,-0.2227,0.1508,-0.4644,0.537
18.205,-0.2813,0.1672,-0.4459,0.553
18.205,-0.4355,0.1597,-0.442,0.641
18.205,-0.6305,0.0567,-0.3597,0.728
18.205,-0.8283,-0.0414,-0.3302,0.893
18.205,-0.8908,-0.1201,-0.4679,1.013
18.205,-0.4859,-0.1412,-0.5553,0.751
18.205,-0.4523,-0.1623,-0.404,0.628
18.206,-0.4429,-0.1594,-0.2456,0.531
18.206,-0.4004,-0.0991,-0.1278,0.432
18.206,-0.3868,-0.0198,-0.0645,0.393
18.206,-0.3446,0.0474,-0.082,0.357
18.206,-0.3835,0.0715,-0.1277,0.41
18.206,-0.3478,0.0883,-0.2161,0.419
18.206,-0.2947,0.246,-0.5216,0.648
18.206,-0.2603,0.6568,-1.18,1.375
18.206,-0.4959,1.3227,-1.4539,2.027
18.206,-1.6184,2.0284,-0.2256,2.605
18.207,-1.9832,2.038,0.9718,3.005
18.207,-1.5026,1.1037,1.8532,2.629
18.207,-0.6426,0.0464,0.6062,0.885
18.207,-3.0218,0.0587,-1.7243,3.48
18.207,-9.5419,0.1574,-0.0888,9.544
18.207,-7.5944,0.7713,-1.1842,7.725
18.208,-2.4278,0.0477,-0.1058,2.431
18.208,2.1427,-0.8921,-0.5509,2.385
18.208,5.2176,-2.6586,1.0124,5.943
18.208,4.3018,-2.3261,1.2856,5.057
18.208,3.1201,-1.5026,0.949,3.591
18.208,1.711,-1.0178,1.2416,2.346
18.208,-0.6373,-0.2475,1.1726,1.357
18.209,-2.4107,-1.3327,1.3003,3.046
18.209,-0.6262,-0.8943,-3.3684,3.541
18.209,-0.6222,0.0648,-1.8123,1.917
18.209,-0.5418,-0.0191,-0.0999,0.551
18.209,-1.2995,-0.6168,1.2764,1.923
18.209,-2.2094,-0.203,1.3273,2.585
18.209,-2.6271,0.894,1.2062,3.026
18.209,-2.4289,1.8422,0.6132,3.11
18.21,-1.5412,1.6642,0.1329,2.272
18.21,-0.3801,0.8273,-0.5733,1.076
18.21,0.3806,-0.2259,-0.8794,0.985
18.21,0.6209,-0.85,-0.4983,1.165
18.21,0.9581,-0.7041,-0.4423,1.269
18.21,0.9358,-0.181,-0.3904,1.03
18.21,0.9129,0.1596,-0.1375,0.937
18.21,0.7979,0.146,0.3762,0.894
18.21,0.6076,0.2636,0.0633,0.665
18.211,0.7126,0.4072,-0.168,0.838
18.211,0.641,0.4861,-0.084,0.809
18.211,0.6929,0.5409,-0.0513,0.88
18.211,1.0067,0.4162,-0.1073,1.095
18.211,1.0065,0.2101,-0.285,1.067
18.211,1.3598,0.0136,-0.1901,1.373
18.211,0.906,-0.0108,-0.272,0.946
18.211,0.537,-0.2574,-0.3492,0.69
18.211,0.9746,-0.9961,-0.3841,1.446
18.212,0.8849,-1.0506,-0.3912,1.428
18.212,0.4466,-0.6413,-0.3415,0.853
18.212,-0.0087,-0.3591,0.1294,0.382
18.212,-0.1536,-0.4381,0.3783,0.599
18.212,-0.0283,-0.3569,0.1421,0.385
18.212,0.0031,-0.063,0.2431,0.251
18.212,-0.1864,0.5486,0.3657,0.685
18.212,-0.2868,1.0185,0.6347,1.234
18.213,-0.3584,0.8979,0.8393,1.28
18.213,-0.0868,0.2401,0.6825,0.729
18.213,0.451,-0.6579,-0.0256,0.798
18.213,-0.0073,-0.2145,-0.7933,0.822
18.213,-0.3436,0.1374,-0.4508,0.583
18.213,-0.3153,0.0709,0.0778,0.332
18.213,0.1115,0.0023,0.3593,0.376
18.213,0.3134,0.0033,0.3851,0.496
18.213,0.3829,-0.0579,0.483,0.619
18.214,0.4845,-0.4108,0.4633,0.786
18.214,0.3786,-0.3908,0.1904,0.576
18.214,0.216,-0.2971,0.0339,0.369
18.214,-0.011,-0.1775,-0.2435,0.302
18.214,-0.1649,-0.1919,-0.1064,0.275
18.214,-0.1225,-0.2804,0.0678,0.313
18.214,0.0806,-0.3449,0.201,0.407
18.214,0.0389,-0.2232,0.2934,0.371
18.214,0.1549,-0.2426,0.491,0.569
18.214,0.3652,-0.2595,0.6049,0.753
18.215,0.5195,-0.2475,0.406,0.704
18.215,0.5321,-0.1304,0.2812,0.616
18.215,0.6113,-0.0349,0.3331,0.697
18.215,0.563,-0.0684,0.1381,0.584
18.215,0.5957,-0.0946,-0.1981,0.635
18.215,0.5444,-0.0443,-0.1665,0.571
18.215,0.5358,-0.0298,-0.1688,0.563
18.215,0.3881,0.023,-0.3245,0.506
18.216,0.2114,0.107,-0.5118,0.564
18.216,0.039,0.1359,-0.6399,0.655
18.216,-0.5856,0.4111,-0.4291,0.834
18.216,-4.1083,2.6388,1.1379,5.014
18.216,-3.5893,1.3827,-0.497,3.878
18.216,-3.8355,1.3286,-0.4553,4.085
18.216,-2.3398,0.0946,-0.7088,2.447
18.216,0.3678,-1.8833,-0.892,2.116
18.217,0.568,-2.6379,-0.7345,2.797
18.217,1.3851,-2.9907,0.6866,3.367
18.217,1.8609,-3.3005,0.6009,3.836
18.217,0.7978,-2.4176,-0.0992,2.548
18.217,0.2213,-1.5408,0.0045,1.557
18.217,-0.0663,-0.8656,0.1211,0.877
18.218,-0.0183,-0.454,-0.1971,0.495
18.218,0.1284,-0.0115,-0.3261,0.351
18.218,0.6012,-0.2361,-0.1968,0.675
18.218,0.954,-0.1426,-0.2224,0.99
18.218,1.3354,-0.2118,-0.1354,1.359
18.218,1.2437,-0.1304,-0.0409,1.251
18.218,1.2649,0.0178,-0.0969,1.269
18.218,1.2907,-0.0831,-0.0936,1.297
18.218,1.1415,0.2365,-0.0932,1.169
18.218,0.9462,0.5412,0.0834,1.093
18.219,0.9864,0.6207,-0.0348,1.166
18.219,-2.8136,2.3084,-1.4534,3.919
18.219,-10.2327,2.699,0.3255,10.588
18.219,-0.6674,-1.208,0.916,1.656
18.22,2.4989,-1.0309,0.4584,2.742
18.22,4.3052,-1.4175,-1.0997,4.664
18.22,5.434,-1.1635,-0.5831,5.588
18.22,3.7929,0.0208,-0.545,3.832
18.22,0.4612,1.1717,0.1166,1.265
18.22,-1.1689,0.9368,-0.2904,1.526
18.22,-0.8822,0.3102,-1.6057,1.858
18.221,-0.5365,0.1623,-1.9644,2.043
18.221,0.2263,-0.3772,-1.4013,1.469
18.221,0.6484,0.5441,-1.6025,1.812
18.221,2.1609,-1.5611,-1.2376,2.939
18.221,1.405,-1.9312,-0.6359,2.471
18.221,5.3836,-1.6392,-0.4461,5.645
18.221,7.5366,-2.2462,-2.9746,8.408
18.222,2.8875,-1.2642,-0.0377,3.152
18.222,-0.3915,-0.2966,0.0206,0.492
18.222,-3.2577,1.614,1.4019,3.897
18.222,-3.5091,1.9865,0.9034,4.132
18.222,-0.7447,-0.9931,1.807,2.192
18.222,3.0224,-4.5971,2.2785,5.955
18.223,-4.5259,2.4213,2.0233,5.517
18.223,-12.7281,7.8366,6.7035,16.382
18.223,-6.9539,1.923,0.2759,7.22
18.223,1.841,-3.7264,-1.6436,4.47
18.223,3.6993,-5.6633,-0.4748,6.781
18.224,0.8543,-2.7975,-1.3136,3.206
18.224,0.3533,-1.5411,0.5156,1.663
18.224,0.1851,-1.2136,1.4036,1.865
18.224,-1.3568,1.0806,0.5053,1.807
18.224,-0.1758,0.8464,1.712,1.918
18.224,0.133,1.1143,0.8738,1.422
18.224,-0.1689,1.97,0.067,1.978
18.224,-0.196,3.3362,0.1946,3.348
18.225,0.3059,3.8117,0.3213,3.837
18.225,-1.6539,4.0497,-0.5558,4.41
18.225,0.8056,1.197,0.6445,1.58
18.225,-0.4334,0.8568,-0.3338,1.017
18.225,-0.747,0.8161,-0.8378,1.388
18.225,-0.7989,0.8044,-0.9235,1.462
18.226,-0.0651,0.1763,-0.3687,0.414
18.226,-3.518,1.0739,0.0587,3.679
18.226,1.6991,-1.6283,0.5944,2.427
18.226,0.9138,-1.1635,-0.5373,1.574
18.226,0.2607,-0.549,-0.8372,1.035
18.226,0.0993,-0.4804,-0.467,0.677
18.226,0.1106,-0.7272,-0.1722,0.755
18.226,0.1385,-0.5771,-0.3367,0.682
18.227,0.3033,-0.365,-0.4292,0.64
18.227,-1.3072,0.6783,-1.2648,1.941
18.227,-4.093,1.6509,-0.7238,4.472
18.227,1.9385,-2.3008,1.8579,3.536
18.227,2.5155,-1.4636,-0.0156,2.91
18.227,0.6275,-0.6301,-0.6538,1.104
18.227,3.5617,-1.4847,0.1012,3.86
18.228,-0.2508,1.1699,-1.4273,1.862
18.228,0.1889,1.4909,-0.4944,1.582
18.228,1.0226,0.4015,0.0572,1.1
18.228,0.7482,-0.0441,0.0058,0.75
18.228,-4.1113,1.6544,-1.2766,4.612
18.228,-0.3949,-0.743,1.2644,1.519
18.228,0.5906,-2.2838,1.1422,2.621
18.228,3.2257,-1.4107,-0.4251,3.546
18.229,0.8434,1.0453,-1.7316,2.191
18.229,0.8452,1.1436,-0.2228,1.439
18.229,1.2793,0.4478,0.4304,1.422
18.229,0.4046,-0.1088,0.0285,0.42
18.229,-0.0972,-0.5074,-0.3105,0.603
18.229,-0.2364,-0.5257,-0.1768,0.603
18.229,-0.3416,-0.1975,0.0295,0.396
18.229,-0.2866,0.0443,0.2132,0.36
18.229,-1.9597,1.0266,-0.3518,2.24
18.23,-1.6969,0.9705,0.7271,2.086
18.23,2.0238,-1.1145,2.7069,3.559
18.23,-0.4761,0.3165,-1.161,1.294
18.23,-0.9876,0.6462,-0.4198,1.253
18.23,-0.0448,0.1221,0.6777,0.69
18.23,-0.3016,0.1176,0.4509,0.555
18.23,-0.5682,0.0844,0.1896,0.605
18.23,-1.8167,0.6297,-0.1735,1.931
18.23,0.7411,-0.2813,1.1609,1.406
18.231,0.0023,0.09,0.0549,0.105
18.231,-0.7663,0.5371,-0.3236,0.99
18.231,0.9664,-0.2233,0.4905,1.106
18.231,-0.2405,0.2051,-0.0364,0.318
18.231,-0.2611,0.0379,0.0742,0.274
18.231,-1.9406,1.0516,-1.1838,2.505
18.231,2.8055,-0.7755,1.4081,3.233
18.231,1.4714,-0.1844,-0.5714,1.589
18.232,-0.1153,0.3435,-0.8961,0.967
18.232,-2.3897,1.1478,-1.0235,2.842
18.232,4.1893,-1.6481,2.2256,5.022
18.232,-0.3487,0.0763,-1.3095,1.357
18.232,-0.1909,0.0298,-0.4422,0.483
18.232,0.3036,-0.1791,0.2018,0.406
18.232,-2.74,1.13,-0.9471,3.111
18.232,1.0084,-0.2108,1.3336,1.685
18.233,1.9887,-0.9164,0.5952,2.269
18.233,-2.2042,0.6038,-1.7549,2.882
18.233,-2.1226,0.7765,0.2194,2.271
18.233,3.1363,-1.0511,1.3993,3.592
18.233,-3.4196,1.2724,-2.2395,4.281
18.234,0.5653,-0.1167,0.7438,0.941
18.234,1.705,-0.7342,0.5631,1.94
18.234,-1.3331,0.2552,-1.3422,1.909
18.234,-0.6173,0.2181,-0.386,0.76
18.234,0.3957,-0.2179,0.1602,0.479
18.234,-0.0749,-0.1729,-0.3715,0.417
18.234,-3.3957,0.9666,-1.5458,3.854
18.234,1.463,-0.3119,1.5286,2.139
18.234,1.1026,-0.8167,0.2532,1.395
18.235,0.1071,-0.5467,-0.8627,1.027
18.235,-0.0114,-0.4086,-0.6276,0.749
18.235,-0.7221,-0.0748,-0.6178,0.953
18.235,-1.1429,0.1703,-0.3743,1.215
18.235,0.8814,-0.7202,0.5693,1.273
18.235,-0.3093,-0.3642,-0.8387,0.965
18.235,-0.147,-0.2528,-0.5659,0.637
18.235,-0.7677,0.1356,-0.1134,0.788
18.236,2.2988,-1.3332,0.7473,2.761
18.236,-1.6676,0.1418,-1.5946,2.312
18.236,-0.3058,-0.0724,0.0321,0.316
18.236,0.2767,-0.3745,0.2661,0.536
18.236,-0.1459,-0.3082,-0.2311,0.412
18.236,-0.2069,-0.2993,-0.2568,0.445
18.236,-3.3399,0.9688,-0.9619,3.608
18.236,-0.6313,0.1392,1.1811,1.346
18.237,5.4419,-2.1422,2.6964,6.44
18.237,-2.4481,-0.1374,-2.9591,3.843
18.237,-3.3865,1.4029,-1.3446,3.904
18.237,0.0753,0.3318,1.5023,1.54
18.237,0.0454,-0.1353,0.4781,0.499
18.237,-0.6251,0.0459,-0.3885,0.737
18.238,-0.1732,-0.0265,0.065,0.187
18.238,0.0107,-0.0201,0.1905,0.192
18.238,-0.1046,0.1202,0.0336,0.163
18.238,-0.1312,0.1002,0.0895,0.188
18.238,-0.1479,0.2714,0.0523,0.313
18.238,-0.3315,0.3275,0.0681,0.471
18.238,-0.3597,0.3382,0.0551,0.497
18.238,-0.3593,0.337,0.0181,0.493
18.238,-0.3734,0.2808,0.0576,0.471
18.238,-0.4329,0.2057,0.066,0.484
18.239,-0.4687,0.1473,0.048,0.494
18.239,-0.4498,0.125,0.0394,0.469
18.239,-0.4216,0.1363,0.0594,0.447
18.239,-0.3771,0.1882,0.0577,0.425
18.239,-0.316,0.2186,0.0512,0.388
18.239,-0.217,0.2728,0.0687,0.355
18.239,-0.0821,0.3031,0.1366,0.342
18.239,-0.0426,0.3261,0.0563,0.334
18.239,-0.0767,0.2964,0.0001,0.306
18.24,-0.0553,0.2762,-0.1254,0.308
18.24,-0.067,0.2296,-0.1839,0.302
18.24,-0.1115,0.1926,-0.2018,0.3
18.24,-0.1554,0.1507,-0.1911,0.289
18.24,-0.2178,0.0873,-0.0921,0.252
18.24,-0.2632,-0.0119,0.0952,0.28
18.24,-0.1867,-0.1206,0.1437,0.265
18.24,-0.0602,-0.2147,0.0632,0.232
18.24,0.0253,-0.2992,-0.0342,0.302
18.24,0.0365,-0.3643,-0.1148,0.384
18.241,0.0164,-0.3648,-0.1573,0.398
18.241,-0.0065,-0.2936,-0.1518,0.331
18.241,0.0371,-0.239,-0.1368,0.278
18.241,0.1592,-0.1343,-0.1982,0.287
18.241,0.202,-0.0846,-0.2762,0.352
18.241,0.2183,-0.1042,-0.2799,0.37
18.241,0.2226,-0.1525,-0.286,0.393
18.241,0.1837,-0.1983,-0.2993,0.403
18.241,-2.6391,0.3557,-1.1731,2.91
18.242,0.8699,-0.1356,1.1623,1.458
18.242,2.3959,-1.0417,0.914,2.768
18.242,-1.3677,-0.3286,-1.321,1.93
18.242,-0.9379,0.0822,-0.3111,0.992
18.242,-0.8298,0.1844,0.0762,0.853
18.242,1.186,-0.4111,0.5568,1.373
18.242,-2.2655,0.1869,-1.2875,2.613
18.242,-1.0076,0.3895,0.2588,1.111
18.243,2.4912,-0.5693,1.1697,2.81
18.243,-1.6665,0.1511,-1.6881,2.377
18.243,0.5739,0.2059,-0.132,0.624
18.243,-1.1497,0.3995,-0.7961,1.454
18.243,1.3783,-0.0979,0.5935,1.504
18.243,-0.3428,0.0747,-0.7135,0.795
18.243,-2.0465,0.5552,-0.6683,2.223
18.243,1.5671,-0.2865,1.1402,1.959
18.243,0.8658,-0.398,-0.0394,0.954
18.244,-0.7281,-0.0387,-0.7103,1.018
18.244,0.1541,-0.1627,0.096,0.244
18.244,-1.2304,0.1532,-0.2836,1.272
18.244,0.9653,-0.2341,0.7494,1.244
18.244,-0.2552,0.0054,-0.4834,0.547
18.244,-0.2355,0.144,-0.3592,0.453
18.244,0.1287,0.1413,-0.2469,0.312
18.244,-0.0879,0.2055,-0.3138,0.385
18.244,0.0095,0.1595,-0.292,0.333
18.245,-0.0144,0.1398,-0.3155,0.345
18.245,-0.0782,0.1749,-0.3532,0.402
18.245,-0.1294,0.1668,-0.3072,0.373
18.245,-0.1967,0.1706,-0.2515,0.362
18.245,-0.2062,0.1552,-0.1765,0.313
18.245,-0.1913,0.1779,-0.1183,0.287
18.245,-0.1618,0.1552,-0.0575,0.231
18.246,-0.1488,0.1635,-0.0516,0.227
18.246,-0.1762,0.1693,-0.1194,0.272
18.246,-0.2629,0.1823,-0.1632,0.359
18.246,-0.2895,0.145,-0.1545,0.359
18.246,-0.3493,0.1244,-0.1219,0.39
18.246,-0.3061,0.0393,-0.0345,0.311
18.246,-0.2965,-0.0241,-0.0238,0.298
18.246,-0.3156,-0.0325,-0.0919,0.33
18.246,-0.337,-0.0409,-0.1001,0.354
18.246,-0.3943,-0.0325,-0.063,0.401
18.247,-0.4092,-0.0384,-0.0356,0.413
18.247,-0.4051,-0.049,0.0467,0.411
18.247,-0.4084,-0.0571,0.1219,0.43
18.247,-0.4357,-0.0198,0.0991,0.447
18.247,-0.4237,0.0005,0.06,0.428
18.247,-0.5051,0.028,0.0327,0.507
18.247,-0.5815,0.0889,0.0557,0.591
18.247,-0.3232,0.047,0.2196,0.394
18.247,-0.2715,-0.0067,0.1896,0.331
18.248,-0.3082,-0.0269,0.0497,0.313
18.248,-0.2228,-0.0423,0.0439,0.231
18.248,-0.1853,-0.0791,-0.0003,0.202
18.248,-0.2481,-0.03,-0.0346,0.252
18.248,-0.3297,0.0215,0.0411,0.333
18.248,-0.3131,-0.006,0.2243,0.385
18.248,-0.1961,-0.0836,0.2951,0.364
18.248,-0.1418,-0.1515,0.2178,0.301
18.248,-0.1334,-0.1548,0.1548,0.256
18.248,-0.1181,-0.1149,0.1135,0.2
18.249,-0.0674,-0.0201,0.089,0.113
18.249,-0.1462,0.0675,0.074,0.177
18.249,0.1809,0.0642,0.0711,0.205
18.249,0.2159,0.1088,0.0394,0.245
18.249,0.2222,0.1414,-0.0066,0.263
18.249,0.2141,0.1189,0.0071,0.245
18.249,0.1964,0.0822,0.0038,0.213
18.249,0.1547,0.0121,0.0171,0.156
18.249,0.1128,-0.065,0.0349,0.135
18.25,0.0995,-0.1587,0.0406,0.192
18.25,0.0858,-0.2307,0.0461,0.25
18.25,0.06,-0.2262,0.0586,0.241
18.25,0.0842,-0.1666,0.0518,0.194
18.25,0.1464,-0.1094,0.0663,0.194
18.25,0.2022,-0.0733,0.0562,0.222
18.25,0.1936,-0.0375,0.0699,0.209
18.25,0.1471,0.0123,0.0761,0.166
18.25,0.0986,0.0664,0.0586,0.133
18.25,0.041,0.1106,0.0434,0.126
18.251,-0.0045,0.1615,0.0758,0.178
18.251,0.0073,0.1931,0.096,0.216
18.251,0.0876,0.1817,0.0874,0.22
18.251,0.1294,0.1776,0.0647,0.229
18.251,0.1615,0.1259,0.0609,0.214
18.251,0.1509,0.0605,0.0761,0.179
18.251,0.1357,-0.0092,0.0578,0.148
18.251,0.1612,-0.0925,0.0488,0.192
18.251,0.2267,-0.1751,0.049,0.291
18.252,0.2656,-0.2784,0.0086,0.385
18.252,0.2473,-0.338,-0.0318,0.42
18.252,0.1805,-0.4191,-0.0537,0.459
18.252,0.109,-0.4786,-0.04,0.492
18.252,0.0636,-0.4949,-0.0147,0.499
18.252,0.0227,-0.4824,-0.0182,0.483
18.252,0.0605,-0.458,0.014,0.462
18.252,0.1242,-0.4957,0.0411,0.513
18.252,0.1328,-0.4711,-0.0276,0.49
18.252,0.1125,-0.3821,-0.1347,0.42
18.253,0.0447,-0.2644,-0.1654,0.315
18.253,0.0487,-0.1565,-0.1605,0.229
18.253,0.0145,-0.0917,-0.1844,0.206
18.253,-0.0507,-0.027,-0.2132,0.221
18.253,-0.0633,0.0113,-0.1847,0.196
18.253,-0.0329,0.0497,-0.2137,0.222
18.253,0.0811,0.0617,-0.1831,0.21
18.253,0.1948,0.0044,-0.1073,0.222
18.253,0.3298,-0.06,-0.0747,0.343
18.253,0.4121,-0.1003,-0.0399,0.426
18.254,0.4464,-0.1048,-0.12,0.474
18.254,0.433,-0.071,-0.2289,0.495
18.254,0.4076,-0.0539,-0.3139,0.517
18.254,0.3059,-0.0345,-0.3895,0.496
18.254,0.1564,0.0112,-0.3743,0.406
18.254,-0.0099,0.0497,-0.2753,0.28
18.255,-0.1431,0.0238,-0.1738,0.226
18.255,-0.2839,0.0003,-0.1344,0.314
18.255,-0.3943,-0.0088,-0.1188,0.412
18.256,-0.4358,-0.0153,-0.1341,0.456
18.256,-0.7336,0.0333,-0.1947,0.76
18.256,-1.2796,0.218,-0.1287,1.304
18.256,0.5596,-0.0683,0.7091,0.906
18.256,-0.7504,-0.0504,-0.4944,0.9
18.256,-0.7692,0.1895,-0.112,0.8
18.257,-0.1408,0.2093,0.1576,0.297
18.257,-1.2556,0.3438,-0.3231,1.341
18.257,0.2508,0.1483,0.597,0.664
18.257,-0.8467,0.0345,-0.4477,0.958
18.257,-1.3244,0.3436,-0.1721,1.379
18.257,1.2433,-0.0527,1.1419,1.689
18.258,0.2085,-0.2976,-0.3696,0.518
18.258,-2.1234,0.4183,-1.0974,2.427
18.258,-1.3717,0.7792,0.4926,1.653
18.258,0.3671,0.3609,1.2726,1.373
18.258,1.0858,-0.2264,0.5332,1.231
18.258,-0.5402,0.1046,-0.7253,0.91
18.259,-1.5118,0.7527,-0.4626,1.751
18.259,0.109,0.5277,0.7576,0.93
18.259,0.5213,0.0498,0.2635,0.586
18.259,-1.1954,0.3659,-0.7241,1.445
18.259,0.1053,0.2439,0.2556,0.369
18.259,0.7376,0.0648,0.1017,0.747
18.259,-1.0558,0.3063,-0.7588,1.336
18.26,1.0079,-0.0312,0.8359,1.31
18.26,-0.3557,0.1336,-0.0966,0.392
18.26,0.5564,-0.1203,0.4088,0.701
18.26,-0.6713,0.0753,-0.4169,0.794
18.26,-0.0772,0.0123,0.1997,0.214
18.26,-0.0019,0.0209,0.2758,0.277
18.26,-0.0509,-0.0637,0.1684,0.187
18.261,-0.0733,-0.1483,-0.1936,0.255
18.261,-0.8568,0.1565,-0.459,0.984
18.261,0.3012,0.038,0.3058,0.431
18.261,-0.5012,0.0703,-0.488,0.703
18.261,-1.0538,0.3679,-0.3515,1.17
18.261,0.0762,0.2399,0.3961,0.469
18.261,-0.2757,0.1719,-0.1476,0.357
18.262,-0.302,0.1781,-0.2345,0.422
18.262,-0.2541,0.1437,-0.1496,0.328
18.262,-0.2805,0.0831,-0.0627,0.299
18.262,-0.195,0.0083,0.0455,0.2
18.262,-0.0978,-0.0281,0.0508,0.114
18.262,-0.0249,-0.0573,0.0632,0.089
18.262,0.024,-0.096,0.0157,0.1
18.263,0.0009,-0.1083,-0.0078,0.109
18.263,-0.0197,-0.1278,-0.0291,0.132
18.263,-0.0596,-0.1352,-0.029,0.151
18.263,-0.0996,-0.1545,-0.0125,0.184
18.263,-0.1422,-0.1714,0.0205,0.224
18.263,-0.1348,-0.193,0.0675,0.245
18.263,-0.1539,-0.2288,0.1216,0.301
18.263,-0.1804,-0.2431,0.1469,0.336
18.264,-0.2621,-0.2143,0.1243,0.361
18.264,-0.294,-0.1663,0.0826,0.348
18.264,-0.2761,-0.0945,0.0913,0.306
18.264,-0.2229,-0.0394,0.0665,0.236
18.264,-0.1488,-0.0034,0.0086,0.149
18.264,-0.0324,-0.0032,-0.0468,0.057
18.264,0.0548,-0.0126,-0.1188,0.131
18.265,0.1225,-0.0481,-0.1955,0.236
18.265,0.1661,-0.0526,-0.2387,0.296
18.265,0.1953,-0.0881,-0.2651,0.341
18.265,0.2364,-0.1451,-0.3058,0.413
18.265,0.2442,-0.1805,-0.3561,0.468
18.266,0.2711,-0.2278,-0.3015,0.465
18.266,0.2646,-0.2631,-0.2663,0.458
18.266,0.239,-0.241,-0.2336,0.412
18.266,0.2113,-0.2022,-0.2299,0.372
18.266,0.2074,-0.1347,-0.2169,0.329
18.266,0.2108,-0.0601,-0.2137,0.306
18.266,0.157,0.0263,-0.2489,0.295
18.266,0.1487,0.0481,-0.2486,0.294
18.267,0.1237,0.0818,-0.2771,0.314
18.267,0.1252,0.0725,-0.3369,0.367
18.267,0.1313,0.0656,-0.3347,0.365
18.267,0.1113,0.0707,-0.3447,0.369
18.267,0.0985,0.0782,-0.3644,0.385
18.267,0.0692,0.0785,-0.3915,0.405
18.267,0.0137,0.0597,-0.4043,0.409
18.267,-0.0464,0.0193,-0.3744,0.378
18.267,-0.1016,0.003,-0.2992,0.316
18.268,-0.1591,0.0154,-0.2194,0.271
18.268,-0.1664,-0.0296,-0.1922,0.256
18.268,-0.2024,-0.0913,-0.1578,0.272
18.268,-0.2552,-0.0932,-0.1614,0.316
18.268,-0.3008,-0.1046,-0.1384,0.347
18.268,-0.2821,-0.0898,-0.1202,0.319
18.268,-0.2874,-0.0725,-0.0851,0.308
18.268,-0.2904,-0.0696,-0.0785,0.309
18.268,-0.2579,-0.026,-0.0408,0.262
18.268,-0.2326,-0.0017,-0.0414,0.236
18.269,-0.2195,0.0132,-0.0515,0.226
18.269,-0.2066,0.0424,-0.0354,0.214
18.269,-0.2153,0.0739,-0.0288,0.229
18.269,-0.1741,0.0816,-0.0699,0.205
18.269,-0.2048,0.1514,-0.1182,0.281
18.269,-0.2236,0.202,-0.1186,0.324
18.269,-0.2305,0.2406,-0.1046,0.349
18.269,-0.2303,0.2576,-0.0977,0.359
18.269,-0.2372,0.2722,-0.0669,0.367
18.27,-0.2658,0.2725,-0.0358,0.382
18.27,-0.2728,0.2512,0.0097,0.371
18.27,-0.275,0.2539,0.022,0.375
18.27,-0.2506,0.2373,0.0298,0.346
18.27,-0.2261,0.2637,0.0426,0.35
18.27,-0.4189,0.1801,0.0726,0.462
18.27,-0.7438,-0.0754,0.0386,0.749
18.27,-0.2157,0.212,-0.0598,0.308
18.27,0.2235,0.3987,-0.103,0.469
18.271,0.2977,0.5037,-0.0267,0.586
18.271,0.0263,0.3359,0.0141,0.337
18.271,-0.0029,0.2231,0.0194,0.224
18.271,0.0183,0.175,-0.0181,0.177
18.271,-0.1298,0.1651,-0.1294,0.247
18.271,0.1886,0.0525,0.0391,0.2
18.271,0.0071,0.0188,-0.1748,0.176
18.271,-0.0734,0.0544,-0.1948,0.215
18.271,0.0784,0.0492,-0.0547,0.108
18.271,0.1155,0.0082,-0.027,0.119
18.272,0.0835,0.003,-0.0327,0.09
18.272,0.0662,0.0002,-0.0262,0.071
18.272,0.0109,-0.005,-0.0459,0.047
18.272,0.0109,0.0112,-0.0439,0.047
18.272,-0.0152,0.0273,-0.0704,0.077
18.272,-0.0006,0.0171,-0.1063,0.108
18.272,0.0023,-0.0074,-0.1181,0.118
18.272,0.0029,-0.0224,-0.0868,0.09
18.272,-0.0155,-0.0613,-0.0554,0.084
18.272,0.0019,-0.0882,-0.0647,0.109
18.273,0.0624,-0.1127,-0.1051,0.166
18.273,0.106,-0.1228,-0.1598,0.228
18.273,0.1139,-0.1353,-0.1644,0.241
18.273,0.1504,-0.1429,-0.1427,0.252
18.273,0.1988,-0.1745,-0.1642,0.311
18.273,0.2568,-0.1701,-0.1929,0.363
18.273,0.255,-0.2064,-0.2338,0.403
18.273,0.2295,-0.2115,-0.2917,0.427
18.273,0.1659,-0.188,-0.302,0.393
18.274,0.1647,-0.2362,-0.2649,0.391
18.274,0.1132,-0.2795,-0.2592,0.398
18.274,0.0308,-0.2916,-0.2205,0.367
18.274,0.0034,-0.2845,-0.1654,0.329
18.274,0.0091,-0.2703,-0.1297,0.3
18.274,0.029,-0.2823,-0.1325,0.313
18.274,0.0012,-0.2537,-0.1282,0.284
18.274,-0.0219,-0.237,-0.0809,0.251
18.274,-0.0063,-0.1965,-0.0626,0.206
18.274,0.007,-0.0724,-0.0323,0.08
18.275,0.0154,0.0635,-0.0139,0.067
18.275,0.0307,0.1729,0.0047,0.176
18.275,0.05,0.2226,0.0068,0.228
18.275,0.0451,0.2578,-0.0315,0.264
18.275,0.0449,0.2715,-0.0623,0.282
18.275,0.0684,0.29,-0.086,0.31
18.275,0.0919,0.2941,-0.0854,0.32
18.275,0.1343,0.2791,-0.0992,0.325
18.275,0.2053,0.2115,-0.1081,0.314
18.275,0.2403,0.1441,-0.0787,0.291
18.276,0.2424,0.0405,-0.0085,0.246
18.276,0.2897,-0.0432,0.0065,0.293
18.276,0.294,-0.093,0.0166,0.309
18.276,0.2842,-0.0854,0.0266,0.298
18.276,0.2391,-0.0518,0.0246,0.246
18.276,0.2513,-0.0328,0.0225,0.254
18.276,0.2613,0.0051,0.0039,0.261
18.276,0.2191,0.0426,-0.0169,0.224
18.276,0.194,0.0608,0.0004,0.203
18.277,0.1595,0.0717,0.039,0.179
18.277,0.1396,0.073,0.0631,0.17
18.277,0.0985,0.0767,0.0681,0.142
18.277,0.0625,0.0828,-0.0027,0.104
18.277,0.0102,0.1172,-0.0585,0.131
18.277,-0.082,0.1015,-0.1044,0.167
18.277,-0.1118,0.1192,-0.1354,0.212
18.277,-0.1414,0.1058,-0.1329,0.221
18.277,-0.147,0.1116,-0.1303,0.226
18.277,-0.1656,0.1109,-0.0997,0.223
18.278,-0.1578,0.1055,-0.0881,0.209
18.278,-0.1882,0.1263,-0.1121,0.253
18.278,-0.216,0.1471,-0.1239,0.289
18.278,-0.2174,0.1414,-0.1354,0.293
18.278,-0.1947,0.1621,-0.1419,0.29
18.278,-0.179,0.1731,-0.1172,0.275
18.278,-0.0795,0.1268,-0.0397,0.155
18.278,-0.0231,0.0374,0.0308,0.054
18.278,0.0545,-0.0686,0.0608,0.107
18.278,0.1201,-0.0931,-0.0526,0.161
18.279,0.1928,-0.0484,-0.1635,0.257
18.279,0.1797,-0.0013,-0.1572,0.239
18.279,-1.0345,0.1101,-0.378,1.107
18.279,0.4286,0.2594,0.8686,1.003
18.279,0.2511,0.1124,0.1404,0.309
18.279,-0.0691,0.1614,-0.1445,0.227
18.279,-0.1953,0.1124,-0.231,0.323
18.279,0.1413,0.0661,-0.2055,0.258
18.279,-1.5116,0.0438,-1.0191,1.824
18.28,-0.6235,0.1769,0.1933,0.676
18.28,-0.1686,0.0616,-0.0137,0.18
18.28,-0.1018,-0.0607,-0.2331,0.262
18.28,-0.4435,0.0323,-0.3648,0.575
18.28,0.1669,0.2806,0.0312,0.328
18.28,0.0459,0.5261,0.2428,0.581
18.28,1.2843,-0.0294,-0.2998,1.319
18.28,1.0276,-0.3312,-0.9008,1.406
18.28,0.5006,-0.3391,0.3479,0.698
18.28,0.2673,-0.6363,0.9352,1.162
18.281,-0.1138,-1.0312,0.7861,1.302
18.281,-0.6447,-1.1531,0.8472,1.569
18.281,-1.2379,-0.7299,1.1831,1.861
18.281,-1.7156,-0.2114,1.3496,2.193
18.281,-1.4743,-0.0708,1.1205,1.853
18.281,-1.3415,0.1534,0.606,1.48
18.282,-1.3718,0.5044,0.1545,1.47
18.282,-1.1441,0.6496,-0.1748,1.327
18.282,-0.9857,0.7448,-0.5133,1.338
18.282,-0.8244,0.821,-0.7058,1.361
18.282,-0.4424,0.7801,-0.7196,1.15
18.282,0.0009,0.6463,-0.646,0.914
18.282,0.3174,0.4935,-0.5021,0.772
18.282,0.5443,0.2979,-0.2712,0.677
18.283,0.6961,0.1501,-0.0225,0.713
18.283,0.7328,-0.0311,0.1513,0.749
18.283,0.6304,-0.1979,0.1667,0.681
18.283,0.5563,-0.3743,0.1672,0.691
18.283,0.3907,-0.5147,0.1099,0.655
18.283,0.1456,-0.5476,0.0305,0.567
18.283,-0.0791,-0.5853,0.0965,0.598
18.283,-0.3747,-0.5392,0.1812,0.681
18.283,-0.646,-0.467,0.2798,0.845
18.283,-0.886,-0.4426,0.3113,1.038
18.284,-0.9995,-0.4731,0.338,1.156
18.284,-1.2423,-0.3435,0.3217,1.328
18.284,-1.4021,-0.2497,0.2626,1.448
18.284,-1.5605,-0.1249,0.1655,1.574
18.284,-1.6697,0.0023,0.0638,1.671
18.284,-1.6201,0.0602,0.0532,1.622
18.284,-1.5,0.0871,0.0787,1.505
18.284,-1.3931,0.1618,0.1354,1.409
18.285,-1.318,0.2532,0.1375,1.349
18.285,-1.1791,0.2633,0.1303,1.215
18.285,-0.9905,0.0917,0.2546,1.027
18.285,-0.9644,0.0184,0.3265,1.018
18.285,-0.938,-0.0024,0.3387,0.997
18.285,-0.9232,-0.0256,0.3415,0.985
18.285,-0.9152,-0.0201,0.3325,0.974
18.285,-0.9858,0.0307,0.2877,1.027
18.285,-1.0825,0.0289,0.2886,1.121
18.286,-1.1576,0.0533,0.2801,1.192
18.286,-1.2305,0.0706,0.2623,1.26
18.286,-1.2919,0.1309,0.2401,1.321
18.286,-1.2486,0.172,0.2444,1.284
18.286,-1.0796,0.1295,0.2084,1.107
18.286,-0.8756,0.0418,0.1629,0.892
18.286,-0.701,-0.0028,0.1655,0.72
18.286,-0.5652,0.053,0.0941,0.575
18.287,-0.3867,0.0587,0.025,0.392
18.287,-0.182,0.0715,0.0373,0.199
18.287,-0.0106,0.1296,-0.0102,0.13
18.287,0.1588,0.147,-0.1318,0.253
18.287,0.2858,0.2001,-0.2031,0.404
18.287,0.39,0.2745,-0.1837,0.511
18.287,0.3925,0.3702,-0.1645,0.564
18.287,0.2911,0.4203,-0.1095,0.523
18.287,0.0738,0.537,-0.0142,0.542
18.287,-0.2356,0.5867,0.155,0.651
18.288,-0.4917,0.5262,0.3051,0.782
18.288,-0.6807,0.3655,0.3935,0.867
18.288,-1.9692,0.6613,0.4826,2.133
18.288,-3.3315,0.8947,1.5167,3.768
18.288,-1.2615,0.0455,1.5289,1.983
18.288,0.0257,-0.8192,0.0804,0.824
18.288,0.4876,-0.7605,-0.284,0.947
18.288,0.0083,-0.3337,-0.5057,0.606
18.288,-0.3411,0.15,-0.1768,0.412
18.289,-1.1557,0.2078,-0.6284,1.332
18.289,-2.0116,0.7196,0.0619,2.137
18.289,-2.0501,0.8629,0.5193,2.284
18.289,-1.5408,0.6835,0.7402,1.841
18.289,-0.9328,0.4712,0.6038,1.207
18.289,-0.8083,0.3355,0.0719,0.878
18.289,-0.7829,0.4937,0.3565,0.992
18.289,0.2676,0.2955,0.1131,0.414
18.29,0.3108,0.0257,-0.3285,0.453
18.29,2.0225,0.1621,-0.6866,2.142
18.29,2.4789,0.1115,-1.4821,2.89
18.29,2.9349,0.2086,-1.7039,3.4
18.29,1.9782,-0.0629,-1.4517,2.455
18.29,0.9242,-0.4061,-0.9172,1.364
18.29,0.222,-0.8183,-0.3055,0.901
18.29,-0.6686,-1.2729,-0.3303,1.475
18.291,-0.8088,-1.1221,0.5958,1.506
18.291,-0.9007,-1.6139,0.2645,1.867
18.291,-0.6942,-1.3401,0.5031,1.591
18.291,-0.5244,-1.2144,0.178,1.335
18.291,-0.295,-0.8138,0.2741,0.908
18.291,0.1422,-0.5138,0.3413,0.633
18.291,0.4649,-0.3574,0.1528,0.606
18.291,0.2943,-0.0865,0.1247,0.331
18.291,-0.2063,0.2057,0.1301,0.319
18.292,-0.6018,0.3805,0.1212,0.722
18.292,-0.7397,0.462,0.1772,0.89
18.292,-0.642,0.5602,0.0735,0.855
18.292,-0.6954,0.6344,-0.0819,0.945
18.292,-0.7607,0.6559,-0.2299,1.03
18.292,-0.9046,0.62,-0.3347,1.147
18.292,-1.0196,0.5507,-0.3941,1.224
18.292,-1.0103,0.4671,-0.463,1.206
18.292,-1.0298,0.3335,-0.5056,1.195
18.293,-1.0759,0.1667,-0.4644,1.184
18.293,-1.051,0.0216,-0.3153,1.097
18.293,-0.8955,0.0058,0.0586,0.897
18.293,-0.6041,-0.0506,0.5043,0.789
18.293,-2.2281,-1.0151,0.31,2.468
18.293,-1.1081,-0.7472,0.0552,1.338
18.293,-0.2645,-0.5033,-0.0049,0.569
18.293,0.016,-0.2166,-0.0336,0.22
18.293,-0.1479,-0.0451,-0.0717,0.17
18.294,-0.4072,-0.0577,-0.1743,0.447
18.294,-0.3848,-0.0845,-0.2313,0.457
18.294,-0.0331,-0.0491,-0.2621,0.269
18.294,0.3733,-0.0161,-0.2381,0.443
18.294,0.6896,0.0264,-0.1431,0.705
18.294,0.8352,0.0614,-0.0274,0.838
18.294,0.8992,0.101,0.0256,0.905
18.294,0.9103,0.1092,0.0018,0.917
18.294,0.8731,0.1027,-0.0341,0.88
18.295,0.835,0.0531,-0.1059,0.843
18.295,0.7718,-0.0062,-0.2302,0.805
18.295,0.6735,-0.056,-0.3279,0.751
18.295,0.5397,-0.0867,-0.3823,0.667
18.295,0.4274,-0.1006,-0.4268,0.612
18.295,0.3387,-0.1072,-0.3944,0.531
18.295,0.2928,-0.0612,-0.3454,0.457
18.295,0.2728,0.0206,-0.2604,0.378
18.295,0.2718,0.1095,-0.2067,0.359
18.296,0.2517,0.1506,-0.0936,0.308
18.296,0.2363,0.1893,0.031,0.304
18.296,0.2761,0.2804,0.1243,0.413
18.296,0.2877,0.4073,0.1625,0.524
18.296,0.2905,0.4956,0.1889,0.605
18.296,0.2199,0.5669,0.1939,0.638
18.296,0.1193,0.5998,0.1728,0.635
18.296,0.1151,0.446,0.0993,0.471
18.296,0.0783,0.4334,0.0784,0.447
18.296,-0.0342,0.5114,0.0861,0.52
18.297,-0.1173,0.5057,0.0579,0.522
18.297,-0.1881,0.4186,0.0227,0.46
18.297,-0.2064,0.3484,0.0115,0.405
18.297,-0.2034,0.2975,0.0103,0.361
18.297,-0.208,0.2203,0.0118,0.303
18.297,-0.1342,0.148,-0.0605,0.209
18.297,-0.0249,0.0878,-0.1396,0.167
18.297,0.0673,0.0397,-0.2111,0.225
18.297,0.0923,-0.0108,-0.218,0.237
18.298,0.1769,-0.097,-0.1602,0.258
18.298,0.2757,-0.1544,-0.0908,0.329
18.298,0.243,-0.2715,-0.0624,0.37
18.298,-0.6119,-0.6465,-0.1825,0.909
18.298,-0.2028,-0.6766,-0.0806,0.711
18.298,0.3698,-0.501,0.0541,0.625
18.298,0.7103,-0.2874,0.1883,0.789
18.298,0.8894,-0.0934,0.3531,0.961
18.298,0.8527,0.1049,0.4145,0.954
18.299,0.6675,0.2022,0.4303,0.819
18.299,0.4743,0.249,0.3935,0.665
18.299,0.201,0.2096,0.2732,0.399
18.299,0.1185,0.2082,0.156,0.286
18.299,-0.016,0.178,0.0603,0.189
18.299,-0.124,0.1861,0.0221,0.225
18.299,-0.6942,0.1179,-0.1096,0.713
18.299,-1.375,-0.3009,-0.081,1.41
18.299,-1.564,-0.5872,-0.2912,1.696
18.299,-1.1275,-0.6815,-0.5985,1.447
18.3,-1.379,-1.0431,-0.9772,1.986
18.3,-1.343,-0.8041,-0.8754,1.793
18.3,1.3228,0.7136,0.2625,1.526
18.3,0.7359,0.554,0.7404,1.182
18.3,-0.6671,-0.3057,0.3414,0.809
18.3,-0.5414,-0.4594,-0.0272,0.711
18.3,-0.2898,-0.5555,-0.215,0.662
18.3,-0.4516,-0.8141,-0.1399,0.941
18.301,-0.2934,-0.7451,0.1388,0.813
18.301,-0.1459,-0.2368,0.2324,0.363
18.301,0.2875,0.0914,0.176,0.349
18.301,0.354,0.2617,0.062,0.445
18.301,0.2936,0.3051,-0.0347,0.425
18.301,0.2978,0.1882,-0.1096,0.369
18.458,0.5052,0.0788,-0.12,0.525
18.458,0.6481,-0.0282,-0.1615,0.668
18.459,0.7124,-0.0778,-0.1913,0.742
18.459,0.7509,-0.1441,-0.2168,0.795
18.459,0.7995,-0.1721,-0.2664,0.86
18.459,0.8318,-0.2049,-0.3309,0.918
18.46,0.8025,-0.2162,-0.3983,0.922
18.46,0.8047,-0.2681,-0.4282,0.95
18.46,0.8504,-0.3439,-0.4542,1.024
18.46,0.813,-0.3431,-0.4906,1.01
18.461,0.7283,-0.3351,-0.4779,0.933
18.461,0.5938,-0.241,-0.4066,0.759
18.461,0.431,-0.0992,-0.3218,0.547
18.462,0.2322,0.1071,-0.1589,0.301
18.462,-0.7055,0.8366,0.3192,1.14
18.462,-1.5486,1.2237,1.2377,2.33
18.463,-0.7189,0.3154,1.252,1.478
18.463,0.1972,-0.417,0.7221,0.857
18.463,0.7256,-0.7373,0.0995,1.039
18.463,0.7671,-0.9258,-0.3276,1.246
18.464,0.5417,-1.0396,-0.4723,1.264
18.465,0.1814,-0.9713,-0.4716,1.095
18.465,-0.0978,-0.7595,-0.3643,0.848
18.465,-0.348,-0.4021,-0.1556,0.554
18.465,-0.471,-0.1192,0.0402,0.488
18.465,-0.5628,0.1109,0.2592,0.629
18.465,-0.571,0.3025,0.4567,0.791
18.466,-0.4598,0.4364,0.633,0.896
18.466,-0.2978,0.4792,0.7671,0.952
18.466,-0.2352,0.4356,0.8184,0.957
18.466,-0.1549,0.3774,0.8303,0.925
18.466,-0.1568,0.3548,0.8,0.889
18.466,-0.1572,0.3486,0.7488,0.841
18.467,-0.1129,0.3995,0.6524,0.773
18.467,0.5591,0.9185,0.725,1.297
18.467,1.7815,1.458,1.4267,2.708
18.467,2.0339,1.2361,2.4402,3.409
18.467,1.465,0.8892,2.6835,3.184
18.468,0.6352,0.4938,2.4838,2.611
18.468,-0.3807,0.0932,1.8176,1.859
18.468,-0.8199,-0.0828,0.7983,1.147
18.468,-0.7899,-0.1272,-0.2366,0.834
18.468,-0.6112,-0.1331,-1.0346,1.209
18.468,-0.3607,-0.1432,-1.4176,1.47
18.469,-0.1385,-0.2912,-1.5336,1.567
18.469,-0.1446,-0.2545,-1.6271,1.653
18.469,-0.1803,-0.2698,-1.495,1.53
18.469,-0.2599,-0.311,-1.2011,1.268
18.469,-0.3381,-0.359,-0.761,0.907
18.469,-0.3552,-0.4544,-0.2359,0.623
18.47,-0.3208,-0.5138,0.1816,0.632
18.47,-0.2204,-0.4511,0.4207,0.655
18.47,-0.0924,-0.3217,0.3629,0.494
18.47,0.0322,-0.1709,0.0965,0.199
18.47,0.1945,-0.0586,-0.2043,0.288
18.47,0.28,-0.0086,-0.4757,0.552
18.471,0.2674,-0.0471,-0.6031,0.661
18.471,0.1594,-0.1094,-0.6118,0.642
18.471,0.159,-0.1715,-0.4808,0.535
18.471,0.2325,-0.1617,-0.2294,0.364
18.471,0.3109,-0.1183,0.0371,0.335
18.471,0.3942,-0.1299,0.2857,0.504
18.471,0.4945,-0.12,0.4763,0.697
18.472,0.5834,-0.115,0.6334,0.869
18.472,0.6085,-0.1078,0.6424,0.891
18.472,0.5436,-0.077,0.5376,0.768
18.472,0.384,-0.0583,0.3978,0.556
18.472,0.2561,-0.0709,0.2469,0.363
18.472,0.1306,-0.1073,0.039,0.174
18.473,0.0865,-0.0959,-0.1041,0.166
18.473,0.0995,-0.1227,-0.2497,0.295
18.473,0.0144,-0.0801,-0.4433,0.451
18.473,-0.1234,-0.0756,-0.6106,0.628
18.473,-0.1755,-0.0831,-0.6395,0.668
18.473,0.128,-0.1931,-0.5064,0.557
18.473,0.1132,-0.1763,-0.4315,0.48
18.474,0.0484,-0.1069,-0.4167,0.433
18.474,-0.0475,-0.1236,-0.4738,0.492
18.474,-0.1172,-0.1856,-0.531,0.575
18.474,-0.1298,-0.2834,-0.5047,0.593
18.474,-0.1162,-0.314,-0.4121,0.531
18.474,-0.1004,-0.3158,-0.2798,0.434
18.475,-0.1299,-0.3151,-0.1313,0.365
18.475,-0.2287,-0.2595,-0.0262,0.347
18.475,-0.3514,-0.2303,-0.0404,0.422
18.475,-0.4457,-0.2273,-0.1162,0.514
18.475,-0.4544,-0.2004,-0.2032,0.537
18.475,-0.392,-0.164,-0.2775,0.507
18.476,-0.2752,-0.1396,-0.3057,0.434
18.476,-0.1754,-0.1199,-0.312,0.377
18.476,-0.1453,-0.0979,-0.2796,0.33
18.476,-0.1368,-0.0592,-0.1466,0.209
18.476,-0.1884,0.0009,-0.0324,0.191
18.476,-0.2428,0.0443,0.0319,0.249
18.476,-0.2619,0.0709,0.0681,0.28
18.477,-0.2124,0.0522,0.0619,0.227
18.477,-0.154,0.0311,0.0061,0.157
18.477,-0.0794,-0.0067,-0.0419,0.09
18.477,0.0282,-0.0037,-0.1394,0.142
18.477,0.1569,-0.1299,0.1247,0.239
18.477,0.8276,0.3438,0.2328,0.926
18.477,0.5795,0.2886,-0.9331,1.136
18.478,0.7079,0.3578,-1.0697,1.332
18.478,0.6003,0.2072,-0.9715,1.161
18.478,0.5436,0.0639,-0.395,0.675
18.478,0.4659,0.0714,-0.4577,0.657
18.478,0.3025,0.0429,-0.2456,0.392
18.478,0.2085,0.036,-0.1214,0.244
18.479,0.1956,0.0338,-0.0823,0.215
18.479,0.1205,0.0267,-0.1424,0.188
18.479,0.0047,0.0387,-0.1967,0.201
18.479,-0.1448,0.0746,-0.219,0.273
18.479,-0.3046,0.0388,-0.2427,0.391
18.479,-0.4057,0.0223,-0.2636,0.484
18.479,-0.3832,0.0204,-0.2509,0.458
18.48,-0.4569,0.0544,-0.1834,0.495
18.48,-0.5073,0.0551,0.041,0.512
18.48,-0.437,0.025,0.3605,0.567
18.48,-0.5401,-0.055,0.4383,0.698
18.48,-0.6802,-0.051,0.49,0.84
18.48,-0.7997,-0.0182,0.6184,1.011
18.481,-0.8532,-0.0092,0.7207,1.117
18.481,-0.7958,0.0001,0.7972,1.126
18.481,-0.6778,0.0287,0.8435,1.082
18.481,-0.5942,0.0669,0.7956,0.995
18.481,-0.4851,0.1577,0.771,0.924
18.481,-0.3601,0.2938,0.7337,0.869
18.482,-0.2594,0.4559,0.6214,0.813
18.482,-0.2255,0.5964,0.5102,0.817
18.482,-0.1169,0.715,0.4329,0.844
18.482,0.0287,0.8262,0.3219,0.887
18.482,0.1618,0.925,0.2937,0.984
18.482,0.345,0.9588,0.2834,1.058
18.483,0.5427,0.9013,0.3101,1.097
18.483,0.6136,0.7574,0.4294,1.065
18.483,0.4956,0.6396,0.4937,0.948
18.483,0.3171,0.4689,0.4797,0.742
18.483,0.1787,0.3148,0.3779,0.523
18.483,0.1131,0.1822,0.3458,0.407
18.483,-0.0353,0.0497,0.3406,0.346
18.484,-0.071,-0.0756,0.2017,0.227
18.484,-0.1042,-0.1839,0.1083,0.238
18.484,-0.1255,-0.2324,0.0869,0.278
18.484,-0.1544,-0.2257,0.0153,0.274
18.484,-0.1312,-0.2404,-0.1134,0.296
18.484,-0.032,-0.2167,-0.2801,0.356
18.485,0.0643,-0.2097,-0.4089,0.464
18.485,0.141,-0.193,-0.5573,0.606
18.485,0.213,-0.1284,-0.6231,0.671
18.485,0.4287,-0.1763,-0.5848,0.746
18.485,0.7213,-0.2123,-0.3489,0.829
18.485,0.9576,-0.2939,-0.0826,1.005
18.485,1.0733,-0.3374,-0.1989,1.143
18.486,0.9658,-0.2379,-0.3441,1.053
18.486,0.37,-0.0048,-0.4468,0.58
18.486,-0.2101,0.0892,-0.4355,0.492
18.486,-0.443,-0.0749,-0.1861,0.486
18.486,-0.4374,-0.3103,0.335,0.632
18.486,-0.3775,-0.2418,0.4927,0.666
18.486,-0.3594,-0.1254,0.4287,0.573
18.486,-0.254,-0.0615,0.3581,0.443
18.487,-0.1685,-0.043,0.2566,0.31
18.487,-0.0859,-0.0148,0.1838,0.203
18.487,-0.0633,0.0182,0.0273,0.071
18.487,0.0619,-0.0014,0.0618,0.088
18.487,0.0272,-0.021,0.0101,0.036
18.487,-0.0815,-0.0407,-0.3548,0.366
18.487,-0.073,-0.0482,-0.2589,0.273
18.487,0.1652,-0.1419,0.0684,0.228
18.488,-0.0001,-0.1257,-0.068,0.143
18.488,-0.2247,-0.0641,-0.2593,0.349
18.488,-0.2127,-0.0312,-0.2241,0.31
18.488,-0.1336,0.0352,-0.2207,0.26
18.488,-0.1597,0.1851,-0.279,0.371
18.488,-0.2575,0.2824,-0.2345,0.448
18.488,-0.3581,0.198,-0.0309,0.41
18.488,-0.4095,0.1665,-0.0223,0.443
18.489,-0.2204,0.1137,-0.1504,0.29
18.489,-0.0555,0.0633,-0.1316,0.156
18.489,-0.1316,-0.0445,-0.0961,0.169
18.489,-0.1885,-0.2072,-0.1002,0.297
18.489,0.0026,-0.1568,-0.0424,0.162
18.489,-0.012,-0.1638,-0.0573,0.174
18.489,-0.0315,-0.1206,-0.0756,0.146
18.489,-0.0966,-0.02,-0.0327,0.104
18.49,-0.0887,-0.1416,-0.0286,0.169
18.49,-0.0202,-0.2914,-0.0721,0.301
18.49,-0.0029,-0.5746,-0.8065,0.99
18.49,0.3149,-0.7068,0.1943,0.798
18.49,1.0347,-0.6167,1.1859,1.69
18.49,0.3508,-0.6373,0.6428,0.971
18.49,0.0271,-0.603,-0.2189,0.642
18.491,0.0742,-0.478,-0.3278,0.584
18.491,0.1147,-0.4895,-0.0815,0.509
18.491,-0.009,-0.4962,-0.0774,0.502
18.491,-0.1375,-0.5627,-0.1907,0.61
18.491,-0.2284,-0.6528,-0.1559,0.709
18.491,-0.2299,-0.6828,-0.0324,0.721
18.491,-0.2234,-0.6814,0.0703,0.721
18.491,-0.2811,-0.67,0.0833,0.731
18.492,-0.2736,-0.7085,0.0833,0.764
18.492,-0.2822,-0.7465,0.0462,0.799
18.492,-0.3062,-0.7628,-0.2051,0.847
18.492,-0.8729,-0.227,-0.1929,0.922
18.492,-1.0649,0.2124,-0.1236,1.093
18.492,0.0483,-0.1762,0.5089,0.541
18.492,0.3364,-0.1085,0.6576,0.747
18.492,0.2919,-0.0055,0.2876,0.41
18.493,0.2934,0.0137,0.0919,0.308
18.493,0.2869,-0.1343,0.1225,0.34
18.493,0.1407,-0.301,0.1543,0.366
18.493,-0.0825,-0.2713,0.1444,0.318
18.493,-0.1839,-0.3491,0.1962,0.441
18.493,-0.326,-0.293,0.114,0.453
18.493,-0.5019,-0.1651,0.1755,0.557
18.493,-0.5903,-0.1925,0.0942,0.628
18.494,-0.5821,-0.1454,0.0448,0.602
18.494,-0.5109,-0.1172,0.075,0.53
18.494,-0.2426,-0.3015,0.1657,0.421
18.494,-0.3674,-0.2153,0.1236,0.443
18.494,-0.5318,-0.1982,0.0587,0.571
18.494,-0.5973,-0.305,-0.0721,0.675
18.495,-0.5431,-0.3418,-0.2401,0.685
18.495,-0.3406,-0.4713,-0.4555,0.739
18.495,-0.1502,-0.6478,-0.4229,0.788
18.495,-0.043,-0.905,-0.1887,0.925
18.495,-0.1141,-1.116,0.0741,1.124
18.495,-0.1361,-1.3025,0.1895,1.323
18.495,-0.2779,-1.4146,0.284,1.469
18.496,-0.3173,-1.3088,0.0274,1.347
18.496,-0.5849,-1.2052,0.3374,1.382
18.496,-0.8516,-1.1467,0.67,1.578
18.496,-1.0417,-1.1089,0.3922,1.571
18.496,-1.2255,-0.9627,0.2261,1.575
18.496,-1.0853,-0.7941,0.4285,1.411
18.496,-1.1588,-0.5721,0.268,1.32
18.496,-1.1041,-0.4305,0.1775,1.198
18.497,-1.1077,-0.2498,0.0229,1.136
18.497,-0.8136,-0.0944,0.0001,0.819
18.497,-0.3676,-0.2057,-0.0918,0.431
18.497,0.1306,-0.1175,-0.0207,0.177
18.497,0.2307,-0.2176,-0.2269,0.39
18.497,-0.0069,-0.3982,-0.7228,0.825
18.497,-0.384,-0.468,-0.8171,1.017
18.497,-0.4539,-0.5416,-0.4364,0.831
18.498,-0.7338,-0.6451,-0.2322,1.004
18.498,-1.018,-0.6971,0.1028,1.238
18.498,-1.2034,-0.9318,1.0084,1.826
18.498,-1.5218,-0.503,0.1374,1.609
18.498,-1.7865,0.0652,0.3566,1.823
18.498,-1.9413,0.4839,0.2964,2.023
18.498,-1.9541,0.718,0.0437,2.082
18.499,-1.7612,0.7466,-0.1512,1.919
18.499,-1.4777,0.5966,-0.4785,1.664
18.499,-1.0776,0.3973,-0.8345,1.42
18.499,-0.5026,0.2682,-0.9542,1.111
18.499,0.084,-0.1477,-0.9041,0.92
18.499,0.6336,-0.5636,-0.8612,1.209
18.499,1.2863,-0.8727,-0.9386,1.816
18.5,1.6613,-0.9564,-0.9512,2.14
18.5,1.8963,-0.9926,-0.9287,2.333
18.5,1.975,-0.8431,-0.9345,2.342
18.5,1.9745,-0.6066,-0.8332,2.227
18.5,1.9932,-0.4127,-0.705,2.154
18.5,1.8947,-0.3331,-0.4687,1.98
18.5,1.8316,0.0624,-0.3663,1.869
18.501,1.8169,0.7702,-0.1899,1.983
18.501,1.7467,1.3781,0.0393,2.225
18.501,1.7131,2.0528,0.2503,2.685
18.501,1.7325,2.6506,0.4535,3.199
18.501,1.7471,3.05,0.5974,3.565
18.501,1.7425,3.4066,0.6801,3.886
18.502,1.7134,3.6251,0.7833,4.085
18.502,1.6548,3.6677,0.7833,4.099
18.502,1.6545,3.5372,0.6853,3.965
18.502,1.6336,2.9732,0.5822,3.442
18.502,1.2596,1.8119,0.7203,2.321
18.502,0.7046,0.856,0.6897,1.306
18.503,0.2948,0.202,0.4352,0.563
18.503,-0.0734,-0.1123,0.0628,0.148
18.503,-0.2853,-0.3767,-0.2869,0.553
18.503,-1.0971,-0.3499,-0.0861,1.155
18.503,-4.8907,-3.8406,14.4823,15.761
18.503,-3.5822,-4.1647,15.1691,16.133
18.504,-0.1361,-5.5852,4.0532,6.902
18.504,2.5566,-8.5554,-4.4337,9.969
18.504,0.6939,-10.9253,-3.5172,11.498
18.505,-2.173,-5.9022,-2.7753,6.875
18.505,-4.7973,1.4062,-2.0152,5.39
18.505,-2.0943,1.0744,1.944,3.053
18.505,2.1184,2.0071,1.9526,3.511
18.505,4.5145,1.1628,-1.8655,5.021
18.506,8.4976,1.3392,-3.6507,9.345
18.506,5.9197,9.4952,-2.045,11.375
18.506,2.2636,3.3443,1.5676,4.332
18.506,1.9847,-0.1165,-4.4311,4.857
18.506,0.6402,-1.4123,-5.2502,5.474
18.507,-1.3503,-0.399,-4.3309,4.554
18.507,-1.5397,1.468,-3.3451,3.964
18.507,-0.7138,3.3009,-2.2779,4.074
18.507,0.1751,4.9298,-1.328,5.109
18.507,0.5956,5.5497,-0.7512,5.632
18.508,0.4566,4.6748,-0.2592,4.704
18.508,0.0001,4.1043,0.0532,4.105
18.508,-0.2572,2.9774,0.0194,2.989
18.508,-0.6374,1.8701,-0.746,2.112
18.508,-0.6076,1.0622,-0.5964,1.361
18.509,-0.7705,1.2033,0.0477,1.43
18.509,-0.178,0.8444,0.6321,1.07
18.509,1.6129,0.7072,-0.8635,1.961
18.509,0.3697,0.0473,-0.1461,0.4
18.509,2.4832,-0.3917,1.2132,2.791
18.509,1.0625,0.5257,0.5959,1.327
18.509,-0.1865,0.866,0.0532,0.887
18.509,0.2882,0.6654,-1.0872,1.307
18.51,1.3421,1.2342,-0.5686,1.91
18.51,-0.2642,2.6444,-0.9796,2.832
18.51,-2.2203,1.1616,-0.1374,2.51
18.51,4.0129,-2.1333,-0.62,4.587
18.51,4.4919,0.2064,-3.5607,5.736
18.511,-3.7673,4.4091,-1.9399,6.115
18.511,-2.2177,1.8884,1.3747,3.221
18.511,-0.1185,0.5275,0.0263,0.541
18.511,1.9619,-0.5434,-1.695,2.649
18.511,3.3686,-1.3804,-2.1549,4.23
18.512,4.2531,-1.4963,-2.3188,5.07
18.512,4.4256,-1.4732,-1.8974,5.036
18.512,4.4127,-1.2464,-1.3103,4.769
18.512,4.1989,-0.9086,-0.5787,4.335
18.512,4.0342,-0.5773,0.1349,4.078
18.513,3.4825,-0.3806,0.7061,3.574
18.513,2.8511,-0.4535,0.9141,3.028
18.513,2.0353,-0.8816,1.3862,2.616
18.513,0.9408,-0.98,1.6586,2.144
18.513,-0.2875,-1.3675,1.9698,2.415
18.513,-1.5958,-1.5199,1.961,2.95
18.514,-2.714,-1.7902,1.8005,3.717
18.514,-3.5804,-1.7592,1.3469,4.21
18.514,-4.2426,-1.7446,0.6192,4.629
18.514,-4.5545,-1.8102,0.0208,4.901
18.515,-4.6654,-1.7384,-0.2076,4.983
18.515,-4.4514,-1.601,-0.2448,4.737
18.515,-4.1137,-1.4318,-0.0583,4.356
18.515,-3.6547,-1.1019,0.3013,3.829
18.515,-3.0097,-0.8509,0.7098,3.207
18.516,-2.3233,-0.6339,0.9698,2.596
18.516,-1.65,-0.3796,1.0361,1.985
18.516,-1.1328,-0.1405,1.1471,1.618
18.516,-0.5771,-0.1251,1.2928,1.421
18.516,-0.1414,0.0893,1.4784,1.488
18.516,0.1443,0.0791,1.583,1.592
18.516,0.2947,0.0166,1.4215,1.452
18.517,0.4296,0.0043,1.0734,1.156
18.517,0.5517,-0.0533,0.646,0.851
18.517,0.6973,-0.2399,0.0857,0.742
18.517,0.8068,-0.2638,-0.4965,0.983
18.517,0.8949,-0.0654,-1.0261,1.363
18.517,1.0289,0.1662,-1.357,1.711
18.517,1.2041,0.4216,-1.5576,2.013
18.518,1.3828,0.7602,-1.6029,2.249
18.518,1.6085,1.0911,-1.5679,2.497
18.518,1.8718,1.3258,-1.3742,2.674
18.518,2.0254,1.4593,-1.1461,2.747
18.518,2.0433,1.4536,-0.9546,2.683
18.518,2.028,1.1177,-0.5593,2.382
18.519,1.8889,0.4661,-0.2579,1.963
18.519,1.5292,0.0055,-0.2467,1.549
18.519,1.073,-0.2022,-0.3697,1.153
18.519,0.5912,-0.3504,-0.3713,0.781
18.519,-0.3258,-0.3554,0.8146,0.947
18.519,-1.3185,-0.2766,3.0411,3.326
18.519,-1.0162,-0.5683,2.6811,2.923
18.52,-0.3663,-0.6612,0.6835,1.019
18.52,-0.3597,-0.4626,-1.043,1.196
18.52,-0.6067,-0.1563,-1.3287,1.469
18.52,-0.5285,0.0281,-1.3172,1.42
18.52,-0.0152,0.5377,-1.2823,1.391
