time,ax,ay,az,aT
0.002,0.7988,0.2912,-0.8886,1.23
0.003,0.9429,0.3954,-1.1109,1.51
0.003,1.1108,0.4417,-1.3427,1.798
0.008,0.982,0.5214,-1.3332,1.736
0.014,0.812,0.2714,-1.6732,1.88
0.018,0.7635,0.075,-1.5809,1.757
0.023,1.2662,-0.4286,-1.8146,2.254
0.027,1.8109,-0.563,-1.4965,2.416
0.033,2.0219,-0.4484,-1.1841,2.386
0.04,1.2796,-0.105,-0.66,1.444
0.042,0.5373,0.1714,-0.1129,0.575
0.047,-0.1219,0.348,0.1662,0.404
0.052,-0.5755,0.4502,0.1014,0.738
0.057,-0.9732,0.5523,0.0831,1.122
0.061,-1.3139,0.6326,0.1228,1.463
0.067,-1.5893,0.6555,0.0506,1.72
0.074,-1.818,0.6475,-0.0832,1.932
0.076,-1.8828,0.6858,-0.1713,2.011
0.081,-1.8871,0.8232,-0.1516,2.064
0.086,-1.9103,1.0623,-0.0437,2.186
0.091,-1.8949,1.2907,0.0902,2.294
0.095,-1.8026,1.427,0.2285,2.31
0.1,-1.6814,1.4686,0.3452,2.259
0.105,-1.4761,1.4322,0.4164,2.098
0.11,-1.1814,1.3347,0.483,1.847
0.114,-0.802,1.2098,0.5522,1.553
0.119,-0.3572,1.0816,0.5401,1.261
0.124,0.0935,0.9439,0.5303,1.087
0.129,0.4695,0.8139,0.5157,1.072
0.133,0.7094,0.7208,0.5009,1.129
0.139,0.7516,0.6646,0.486,1.115
0.144,0.6705,0.6722,0.4875,1.067
0.148,0.478,0.6773,0.5386,0.989
0.153,0.1657,0.6637,0.6602,0.951
0.158,-0.1936,0.6126,0.7394,0.98
0.162,-0.6766,0.5885,0.8408,1.229
0.168,-1.1211,0.5837,0.9979,1.61
0.176,-1.3791,0.6019,1.1513,1.895
0.177,-1.4967,0.5872,1.3274,2.085
0.182,-1.4356,0.5361,1.4288,2.095
0.188,-1.2074,0.4978,1.4608,1.959
0.192,-0.8999,0.5386,1.3834,1.736
0.197,-0.6335,0.648,1.202,1.505
0.201,-0.4449,0.7967,0.9842,1.342
0.207,-0.3611,0.9437,0.7831,1.278
0.211,-0.3286,1.0887,0.5942,1.283
0.216,-0.2797,1.1338,0.4128,1.239
0.222,-0.135,1.0436,0.1815,1.068
0.226,0.1201,0.8835,-0.1739,0.908
0.231,0.4399,0.6742,-0.637,1.027
0.235,0.7784,0.4821,-1.0125,1.365
0.241,1.1446,0.2346,-1.4255,1.843
0.246,1.5265,0.0343,-1.75,2.322
0.25,1.9254,-0.1343,-2.0204,2.794
0.255,2.1343,-0.2674,-2.0607,2.979
0.26,2.0736,-0.429,-2.0508,2.948
0.265,2.1042,-0.6021,-2.0891,3.026
0.269,2.0612,-0.6245,-2.008,2.945
0.274,2.0057,-0.6878,-1.858,2.819
0.279,1.9257,-0.8806,-1.7494,2.747
0.284,1.8105,-1.2261,-1.7568,2.805
0.295,1.6387,-1.4758,-1.7675,2.826
0.295,1.3942,-1.5919,-1.7047,2.717
0.299,1.008,-1.5641,-1.5798,2.441
0.304,0.6479,-1.4552,-1.4474,2.152
0.309,0.4342,-1.3294,-1.3568,1.948
0.313,0.1004,-1.2882,-1.1972,1.762
0.319,-0.0937,-1.3431,-0.9917,1.672
0.323,-0.1211,-1.4466,-0.8594,1.687
0.328,-0.0649,-1.4424,-0.6992,1.604
0.333,-0.0031,-1.3244,-0.3603,1.373
0.34,0.0884,-1.0866,0.0213,1.09
0.342,0.1355,-0.7486,0.3882,0.854
0.347,0.2219,-0.4474,0.5851,0.769
0.352,0.3646,-0.0805,0.7008,0.794
0.357,0.539,0.4191,0.74,1.007
0.362,0.4674,0.9013,0.6738,1.219
0.366,0.4135,1.2448,0.5786,1.434
0.376,0.3121,1.4654,0.5115,1.583
0.377,0.1706,1.6551,0.4476,1.723
0.381,0.111,1.739,0.3549,1.778
0.386,0.046,1.7502,0.1823,1.76
0.392,0.0034,1.7355,0.0346,1.736
0.395,-0.0322,1.7321,-0.0482,1.733
0.4,-0.0235,1.6807,-0.1623,1.689
0.405,-0.0731,1.6515,-0.2001,1.665
0.41,-0.1349,1.6035,-0.1687,1.618
0.415,-0.0318,1.417,-0.2447,1.438
0.42,0.0454,1.2734,-0.1266,1.28
0.425,0.1303,1.0736,-0.0438,1.082
0.429,0.0437,0.9179,0.2502,0.952
0.434,-0.219,0.8263,0.6622,1.081
0.439,-0.1485,0.5127,0.7863,0.95
0.444,0.0793,0.2319,0.7931,0.83
0.449,0.2929,0.0815,0.848,0.901
0.456,0.5435,-0.0451,0.8126,0.979
0.459,0.7482,-0.1005,0.8308,1.123
0.463,1.1056,-0.205,0.7593,1.357
0.468,1.4283,-0.2935,0.7842,1.656
0.474,1.9072,-0.555,0.5875,2.071
0.478,2.2416,-0.757,0.5542,2.43
0.483,2.5112,-0.9642,0.5218,2.74
0.494,2.5689,-1.042,0.5548,2.827
0.495,2.5166,-0.9959,0.6153,2.776
0.499,2.3361,-0.7925,0.7535,2.579
0.502,2.1305,-0.5276,0.8808,2.365
0.513,1.9066,-0.3088,1.0258,2.187
0.513,1.735,-0.1736,1.071,2.046
0.517,1.5521,-0.0335,1.1,1.903
0.525,1.402,0.0909,1.0262,1.74
0.527,1.3105,0.1308,0.9404,1.618
0.532,1.2769,0.0827,0.7372,1.477
0.536,1.2448,0.0215,0.5412,1.358
0.542,1.1777,-0.0046,0.4793,1.272
0.546,1.084,-0.0718,0.5036,1.197
0.551,0.952,-0.2365,0.626,1.164
0.557,0.6002,-0.195,1.1427,1.305
0.562,0.0655,-0.0408,1.9597,1.961
0.566,-0.612,0.1898,3.0666,3.133
0.571,-2.7317,1.7852,6.0828,6.903
0.577,-7.1011,5.0211,11.9549,14.784
0.582,-9.7816,5.7644,14.8566,18.698
0.586,-8.5803,2.7967,12.3497,15.296
0.609,-6.7194,0.7847,10.4255,12.428
0.611,-4.9425,0.2685,9.3606,10.589
0.612,-3.001,0.3042,8.4185,8.943
0.613,-1.4454,0.8007,8.2139,8.378
0.615,-0.3721,1.2159,8.3976,8.493
0.616,0.3184,1.2623,8.4194,8.519
0.619,0.5237,1.0483,8.2943,8.377
0.632,0.4654,0.6194,7.8073,7.846
0.632,0.2435,0.1472,7.0446,7.05
0.633,-0.0678,-0.2761,6.0806,6.087
0.64,-0.5326,-0.5276,5.1994,5.253
0.645,-0.9977,-0.6554,4.3911,4.55
0.648,-1.4198,-0.7368,3.6624,3.997
0.654,-1.6988,-0.9087,3.0632,3.619
0.658,-1.9139,-1.1655,2.526,3.377
0.664,-2.1051,-1.4153,2.1055,3.297
0.668,-2.1723,-1.6603,1.7728,3.259
0.68,-2.0602,-1.9768,1.4797,3.216
0.681,-1.8009,-2.3068,1.1693,3.152
0.684,-1.3837,-2.6311,0.8343,3.088
0.687,-0.8771,-2.979,0.4628,3.14
0.699,-0.286,-3.2572,0.0116,3.27
0.7,0.322,-3.4362,-0.5235,3.491
0.703,0.7751,-3.6173,-1.1287,3.868
0.707,1.0829,-3.8678,-1.7448,4.379
0.712,1.2069,-4.1324,-2.2414,4.854
0.717,1.2222,-4.4461,-2.6382,5.312
0.722,1.1857,-4.7519,-2.893,5.688
0.725,1.1787,-5.1191,-3.0684,6.084
0.73,1.174,-5.4293,-3.1645,6.393
0.736,1.1638,-5.5807,-3.1884,6.532
0.742,1.1757,-5.5824,-3.1638,6.523
0.746,1.1225,-5.4404,-3.1146,6.369
0.75,0.8787,-5.2463,-2.9977,6.106
0.754,0.2577,-5.0002,-2.7676,5.721
0.762,-0.7194,-4.8177,-2.441,5.449
0.765,-1.8425,-4.7062,-2.0341,5.448
0.769,-2.8189,-4.6925,-1.8166,5.768
0.785,-3.4596,-4.6477,-1.7782,6.061
0.787,-3.6424,-4.4847,-1.7679,6.042
0.787,-3.4289,-4.228,-1.7973,5.733
0.815,-3.0094,-3.9455,-1.8828,5.307
0.816,-2.5148,-3.7113,-2.0842,4.944
0.816,-2.0617,-3.5984,-2.3011,4.743
0.817,-1.7669,-3.5753,-2.4693,4.691
0.817,-1.6048,-3.6068,-2.6202,4.738
0.818,-1.5183,-3.5803,-2.7995,4.792
0.819,-1.5075,-3.4808,-3.0168,4.847
0.83,-1.6169,-3.2683,-3.205,4.855
0.83,-1.7613,-3.0304,-3.374,4.865
0.834,-1.9154,-2.8069,-3.4716,4.858
0.839,-2.067,-2.6446,-3.5964,4.919
0.846,-2.1353,-2.5144,-3.6862,4.947
0.849,-2.1787,-2.4059,-3.7705,4.975
0.853,-2.1947,-2.2708,-3.8375,4.97
0.858,-2.224,-2.1189,-3.8179,4.9
0.865,-2.2105,-1.9412,-3.7618,4.776
0.867,-2.2144,-1.7379,-3.6715,4.626
0.872,-2.2056,-1.5284,-3.5855,4.478
0.881,-2.159,-1.3343,-3.4988,4.322
0.883,-2.0787,-1.1718,-3.424,4.173
0.886,-1.9598,-1.0527,-3.3634,4.033
0.903,-1.8221,-0.917,-3.3101,3.888
0.904,-1.5911,-0.7815,-3.2856,3.733
0.907,-1.338,-0.6179,-3.2253,3.546
0.908,-1.0877,-0.441,-3.0881,3.304
0.911,-0.8487,-0.3184,-2.9263,3.064
0.915,-0.5988,-0.2295,-2.7252,2.8
0.919,-0.3497,-0.1609,-2.4889,2.518
0.925,-0.074,-0.1225,-2.2794,2.284
0.93,0.1737,-0.1152,-2.0531,2.064
0.934,0.3982,-0.1277,-1.8194,1.867
0.939,0.5901,-0.1651,-1.6329,1.744
0.944,0.7282,-0.2255,-1.4862,1.67
0.949,0.7939,-0.2758,-1.3526,1.592
0.953,0.764,-0.35,-1.2057,1.47
0.959,0.7053,-0.3739,-0.9927,1.274
0.964,0.5923,-0.3763,-0.7736,1.044
0.967,0.3853,-0.3382,-0.5245,0.733
0.988,0.143,-0.3147,-0.3148,0.468
0.989,-0.1255,-0.275,-0.1301,0.329
0.991,-0.3968,-0.1929,0.0941,0.451
0.992,-0.5454,-0.1141,0.2908,0.629
0.998,-0.5832,-0.036,0.3448,0.678
0.999,-0.5042,-0.0245,0.2389,0.559
1.002,-0.3459,-0.1072,0.0752,0.37
1.026,-0.1251,-0.2635,-0.1252,0.317
1.027,0.0939,-0.368,-0.3772,0.535
1.028,0.315,-0.4272,-0.5829,0.788
1.028,0.5303,-0.4815,-0.7397,1.03
1.029,0.7504,-0.5786,-0.8955,1.304
1.031,0.9531,-0.6182,-0.9949,1.51
1.036,1.0711,-0.6532,-1.0543,1.639
1.043,1.276,-0.7025,-0.973,1.752
1.046,1.3985,-0.6234,-0.8514,1.752
1.051,1.4125,-0.4784,-0.725,1.658
1.055,1.218,-0.3066,-0.517,1.358
1.06,0.9662,-0.195,-0.3012,1.031
1.066,0.6397,-0.0512,-0.0699,0.646
1.069,0.2981,0.1074,0.1698,0.36
1.085,0.0166,0.2757,0.2817,0.395
1.086,-0.1453,0.5382,0.1077,0.568
1.086,-0.4986,0.5587,0.3691,0.835
1.108,-0.8452,0.5418,0.6639,1.204
1.109,-1.0604,0.6347,0.9566,1.563
1.11,-1.0944,0.7667,1.1759,1.78
1.11,-1.0429,0.8037,1.217,1.793
1.111,-1.007,0.7672,1.1087,1.683
1.113,-0.8793,0.6314,1.0157,1.484
1.118,-0.6353,0.4347,0.8355,1.136
1.124,-0.3883,0.2395,0.5708,0.731
1.128,-0.2101,0.1134,0.3151,0.395
1.134,-0.0721,0.1833,0.1597,0.254
1.138,0.0358,0.227,0.1116,0.255
1.144,0.1544,0.2476,0.1895,0.348
1.147,0.2117,0.2574,0.3191,0.461
1.152,0.2352,0.2006,0.4914,0.581
1.161,0.2401,0.1865,0.6186,0.689
1.164,0.1944,0.3479,0.7758,0.872
1.166,0.0651,0.4448,0.9517,1.053
1.171,-0.1005,0.5055,1.1395,1.251
1.178,-0.287,0.4041,1.3547,1.443
1.182,-0.4998,0.3386,1.6123,1.722
1.185,-0.7192,0.3638,1.8979,2.062
1.203,-0.8747,0.3591,2.1526,2.351
1.204,-0.9856,0.3606,2.3399,2.564
1.205,-0.9874,0.2992,2.3234,2.542
1.23,-0.8835,0.1699,2.1488,2.329
1.231,-0.7124,-0.0535,1.7419,1.883
1.232,-0.4392,-0.3522,1.3333,1.447
1.232,-0.1156,-0.5817,0.9316,1.104
1.232,0.3072,-0.7128,0.399,0.873
1.233,0.5919,-0.6303,-0.0271,0.865
1.234,0.861,-0.5046,-0.4268,1.085
1.24,0.9779,-0.3638,-0.6949,1.254
1.244,0.9198,-0.1862,-0.7382,1.194
1.249,0.7829,-0.1393,-0.6071,1.001
1.254,0.6153,-0.1851,-0.402,0.758
1.259,0.2743,-0.1459,-0.0164,0.311
1.263,-0.0205,-0.078,0.3399,0.349
1.268,-0.4307,0.0435,0.8225,0.929
1.281,-0.8064,0.1847,1.22,1.474
1.281,-1.0805,0.2633,1.5655,1.92
1.287,-1.2312,0.2532,1.7223,2.132
1.288,-1.2571,0.2089,1.7595,2.173
1.302,-1.2056,0.1494,1.7448,2.126
1.304,-1.0445,0.076,1.6435,1.949
1.304,-0.8745,-0.0213,1.4739,1.714
1.311,-0.7172,-0.0018,1.3522,1.531
1.313,-0.6188,0.0408,1.3222,1.46
1.317,-0.5912,0.1442,1.315,1.449
1.322,-0.5775,0.2085,1.2083,1.355
1.327,-0.5785,0.1983,0.9846,1.159
1.332,-0.5682,0.1147,0.7056,0.913
1.337,-0.4894,0.0234,0.4922,0.695
1.345,-0.3975,-0.0491,0.2988,0.5
1.346,-0.264,-0.1019,0.1792,0.335
1.35,-0.0915,-0.1775,0.0589,0.208
1.355,0.1231,-0.2392,0.0163,0.269
1.36,0.2822,-0.2828,-0.0126,0.4
1.366,0.4728,-0.2796,-0.0227,0.55
1.37,0.5732,-0.1702,-0.0256,0.598
1.391,0.5908,-0.0454,-0.0574,0.595
1.392,0.5848,0.0442,-0.1584,0.607
1.393,0.5282,0.109,-0.3084,0.621
1.399,0.4726,0.1116,-0.518,0.71
1.4,0.5059,0.1196,-0.9316,1.067
1.4,1.5371,0.7492,-3.1777,3.609
1.404,2.8409,1.3982,-6.0265,6.808
1.419,1.7786,0.4485,-5.8231,6.105
1.42,0.4919,-0.4329,-3.9396,3.994
1.42,0.4388,-0.334,-2.9557,3.007
1.427,0.7269,0.1615,-2.6209,2.725
1.429,0.9362,0.6116,-2.3798,2.629
1.434,0.8769,0.6804,-1.903,2.203
1.439,0.7113,0.6546,-1.4843,1.771
1.444,0.4229,0.3906,-1.2964,1.418
1.448,0.0764,0.0743,-1.0656,1.071
1.452,0.138,0.0439,-1.0274,1.038
1.458,0.103,-0.0911,-0.8726,0.883
1.462,-0.1418,-0.2856,-0.524,0.613
1.471,-0.3057,-0.3093,-0.1303,0.454
1.472,-0.448,-0.1999,0.2743,0.562
1.479,-0.7026,-0.0521,0.614,0.935
1.481,-0.9193,-0.0195,0.7533,1.189
1.486,-1.0339,-0.0448,0.7544,1.281
1.495,-1.0562,-0.0418,0.6219,1.226
1.498,-1.5935,0.0334,0.587,1.699
1.519,-3.3737,0.2452,0.8351,3.484
1.52,-2.733,0.2247,1.4866,3.119
1.52,-0.8675,-0.0845,2.0124,2.193
1.521,-0.4257,-0.2459,1.8223,1.887
1.522,-0.4499,-0.27,1.1443,1.259
1.528,-0.2887,-0.2565,0.4395,0.585
1.531,-0.0351,-0.338,0.1158,0.359
1.535,0.2131,-0.4368,0.0406,0.488
1.546,0.2653,-0.4761,0.1154,0.557
1.547,0.1499,-0.4275,0.285,0.535
1.551,0.0256,-0.3396,0.3843,0.513
1.553,0.0495,-0.2578,0.3725,0.456
1.56,0.2022,-0.2565,0.1997,0.383
1.564,0.4314,-0.393,-0.0475,0.585
1.568,0.6165,-0.6238,-0.1919,0.898
1.574,0.7178,-0.9035,-0.0946,1.158
1.588,0.7956,-1.0913,0.1393,1.358
1.588,0.9329,-1.0753,0.2948,1.454
1.589,1.0594,-0.9801,0.4551,1.513
1.615,1.0622,-0.8511,0.4598,1.437
1.615,0.8041,-0.7383,0.2511,1.12
1.616,0.3801,-0.7872,0.1272,0.883
1.616,-0.0308,-0.8997,0.1526,0.913
1.616,-0.1678,-0.8948,0.0911,0.915
1.617,-0.1005,-0.7822,0.0123,0.789
1.622,0.0046,-0.6958,-0.074,0.7
1.627,-0.014,-0.6237,-0.0619,0.627
1.633,-0.2487,-0.3846,-0.0372,0.459
1.637,-0.4755,-0.0244,-0.1481,0.499
1.642,-0.638,0.3135,-0.3399,0.788
1.647,-0.6392,0.4977,-0.4579,0.931
1.652,-0.5851,0.5578,-0.5242,0.963
1.655,-0.3755,0.5153,-0.6587,0.917
1.661,-0.1055,0.4016,-0.7223,0.833
1.665,0.1927,0.1618,-0.6643,0.71
1.67,0.3651,-0.073,-0.4768,0.605
1.683,0.4841,-0.0428,-0.3073,0.575
1.683,0.449,0.1491,-0.1678,0.502
1.685,0.3166,0.3352,0.0347,0.462
1.69,0.0744,0.4605,0.1061,0.478
1.707,-0.1028,0.5109,0.0634,0.525
1.707,-0.3343,0.5101,-0.0333,0.611
1.708,-0.6462,0.4821,-0.0738,0.81
1.709,-1.1989,0.446,-0.0081,1.279
1.714,-0.7263,0.4923,-0.0278,0.878
1.719,-0.5496,0.5887,0.0906,0.81
1.725,-0.413,0.3585,0.1261,0.561
1.728,-0.3,0.0607,0.0924,0.32
1.733,-0.2415,-0.0842,0.054,0.261
1.738,-0.2808,-0.1383,0.0509,0.317
1.743,-0.3439,-0.1659,0.2502,0.456
1.747,-0.2833,-0.3275,0.5273,0.682
1.752,0.0534,-0.4273,0.6169,0.752
1.759,0.4892,-0.4246,0.5933,0.878
1.762,0.6236,-0.3429,0.5788,0.917
1.767,0.4072,-0.2472,0.5643,0.739
1.772,-0.0489,-0.1743,0.3956,0.435
1.778,-0.5953,-0.0552,0.2409,0.645
1.781,-1.1284,0.0323,0.1397,1.138
1.786,-1.4527,0.135,-0.0293,1.459
1.792,-1.7043,0.1758,-0.141,1.719
1.796,-1.7856,0.2285,-0.2744,1.821
1.8,-1.7398,0.2765,-0.3649,1.799
1.806,-1.5462,0.2577,-0.3292,1.602
1.811,-1.1735,0.1773,-0.3614,1.241
1.815,-0.8957,-0.0186,-0.2942,0.943
1.82,-0.6689,-0.311,-0.1371,0.75
1.826,-0.5588,-0.5396,0.0126,0.777
1.83,-0.5954,-0.6454,0.1388,0.889
1.835,-0.3722,-0.5285,0.2632,0.698
1.839,-0.8436,-0.3397,0.4289,1.005
1.845,-0.8294,-0.0917,0.0476,0.836
1.849,-0.8981,0.0896,-0.2739,0.943
1.854,-0.8353,0.1762,-0.6457,1.07
1.86,-0.6473,0.1566,-0.8213,1.057
1.864,-0.6395,0.1844,-0.7174,0.979
1.868,-0.8239,0.2283,-0.5756,1.031
1.879,-0.9792,-0.0112,-0.4796,1.09
1.879,-0.7876,-1.4539,-1.1294,2.002
1.899,-0.554,-0.5909,-0.8386,1.166
1.899,0.0694,0.5062,-1.7497,1.823
1.9,1.0713,1.1821,-3.5253,3.869
1.9,0.716,1.3174,-3.6149,3.913
1.908,-0.2265,1.1598,-2.9267,3.156
1.908,-1.2867,0.6765,-1.9687,2.447
1.912,-1.5832,0.3316,-1.1015,1.957
1.917,-0.966,0.262,-0.1517,1.012
1.922,-0.344,0.2435,0.9262,1.018
1.927,0.3184,0.3078,1.628,1.687
1.932,0.6545,0.3626,2.0552,2.187
1.936,0.6806,0.3655,2.2009,2.333
1.942,0.4916,0.2663,2.2122,2.282
1.946,0.3891,0.0925,2.1376,2.175
1.951,0.375,0.0009,1.9499,1.986
1.956,0.2817,0.0803,1.644,1.67
1.961,-0.3313,0.1389,1.0898,1.147
1.966,-0.7162,0.2603,0.5553,0.943
1.97,-0.8361,0.3395,-0.0131,0.902
1.977,-0.9843,0.3396,-0.4476,1.133
1.981,-0.7083,0.3335,-0.7428,1.079
1.985,0.0829,0.3934,-1.0713,1.144
1.989,0.5045,0.3703,-1.2337,1.383
1.996,0.4219,0.2379,-1.1494,1.247
2,0.1355,0.0264,-0.748,0.761
2.005,-0.0624,-0.1314,-0.2089,0.255
2.01,-0.156,-0.2318,0.3543,0.451
2.014,-0.2694,-0.2883,0.8747,0.96
2.019,-0.4015,-0.3062,1.2374,1.336
2.024,-0.4822,-0.3012,1.4325,1.541
2.03,-0.5278,-0.245,1.59,1.693
2.033,-0.9217,-0.4149,1.6969,1.975
2.038,-1.5311,-0.5571,1.6746,2.336
2.043,-1.9754,-0.6051,1.5983,2.612
2.048,-1.9446,-0.5729,1.3909,2.459
2.052,-1.7821,-0.5604,1.1085,2.172
2.058,-1.5818,-0.5307,0.9167,1.904
2.062,-1.4614,-0.5914,0.8127,1.774
2.067,-1.4002,-0.7035,0.8446,1.78
2.072,-1.3085,-0.8616,0.8577,1.786
2.077,-1.1942,-0.9223,0.8009,1.708
2.083,-1.1487,-0.8504,0.6576,1.573
2.086,-1.0092,-0.7471,0.8211,1.5
2.092,-0.883,-0.903,0.3805,1.319
2.097,-1.0886,-1.0075,0.407,1.538
2.102,-1.1791,-1.1033,0.5288,1.699
2.106,-1.201,-1.1839,0.6316,1.801
2.111,-1.0364,-1.3415,0.7671,1.861
2.116,-0.8343,-1.5753,0.9521,2.021
2.122,-0.6716,-1.7905,1.253,2.286
2.126,-0.6203,-1.9328,1.7298,2.667
2.131,-0.5689,-1.9541,2.1466,2.958
2.135,-0.5212,-1.8524,2.3642,3.048
2.14,-0.496,-1.7063,2.3203,2.923
2.147,-0.5942,-1.6578,2.093,2.735
2.151,-0.7505,-1.8119,1.7571,2.633
2.154,-0.8475,-2.092,1.3706,2.641
2.16,-0.8344,-2.3974,0.9366,2.706
2.164,-0.7672,-2.7301,0.5413,2.887
2.169,-0.6744,-2.9879,0.2077,3.07
2.175,-0.6674,-3.2827,0.1147,3.352
2.18,-0.6105,-3.5286,0.2356,3.589
2.184,-0.566,-3.7132,0.5471,3.796
2.189,-0.5335,-3.753,0.9336,3.904
2.194,-0.4097,-3.6569,1.3119,3.907
2.198,-0.2346,-3.587,1.523,3.904
2.204,-0.0446,-3.5401,1.6957,3.925
2.208,0.0693,-3.5334,1.8189,3.975
2.213,0.0938,-3.5718,1.9052,4.049
2.218,0.0455,-3.5721,2.0012,4.095
2.223,0.3368,-3.4396,1.8903,3.939
2.228,1.8533,-2.3406,1.3093,3.26
2.232,2.8525,-1.4576,1.3148,3.463
2.237,2.4887,-1.8772,1.4367,3.432
2.242,1.7078,-1.3347,0.8813,2.34
2.247,2.108,-0.6845,0.4418,2.26
2.251,2.6819,-0.1828,0.2233,2.697
2.257,2.994,0.0185,-0.1412,2.997
2.261,2.7276,-0.4835,-0.4114,2.8
2.266,3.0995,-0.4204,-1.3476,3.406
2.271,3.8465,-0.2106,-2.002,4.341
2.281,4.1773,0.0078,-2.6171,4.929
2.281,3.5591,0.3789,-2.7526,4.515
2.286,1.7771,0.5699,-2.2319,2.909
2.29,0.1992,0.5489,-1.8317,1.923
2.295,-0.7224,0.2532,-1.5366,1.717
2.3,-1.0214,-0.0829,-1.4462,1.772
2.305,-0.9265,-0.2469,-1.3762,1.677
2.311,-0.4907,-0.3488,-1.0566,1.216
2.314,-0.4194,-0.3338,-0.3008,0.615
2.319,-0.3543,-0.3916,0.587,0.79
2.327,-0.0525,-0.535,1.4726,1.568
2.332,0.4161,-0.76,2.2366,2.399
2.336,0.6404,-0.8709,2.7535,2.958
2.342,0.5519,-0.8496,2.9925,3.159
2.347,0.3831,-0.8142,2.9273,3.062
2.353,-0.0125,-0.6765,2.6234,2.709
2.355,-0.4116,-0.5896,2.2377,2.35
2.363,-0.8058,-0.3832,1.7715,1.984
2.367,-0.8155,-0.217,1.1996,1.467
2.368,-0.529,-0.1141,0.5945,0.804
2.373,-0.0028,-0.045,0.1316,0.139
2.379,0.3841,-0.1118,-0.2908,0.495
2.383,0.8938,-0.3188,-0.5108,1.078
2.387,1.2743,-0.4073,-0.658,1.491
2.403,1.5777,-0.2653,-0.778,1.779
2.403,1.7233,-0.0411,-0.6437,1.84
2.404,1.3084,0.2409,-0.166,1.341
2.407,0.6239,0.432,0.2587,0.802
2.422,-0.1263,0.5129,0.6428,0.832
2.422,-0.6865,0.4908,0.8838,1.222
2.423,-0.7347,0.404,0.6642,1.07
2.432,-0.6178,0.291,0.4932,0.842
2.432,-0.583,0.219,0.4995,0.798
2.436,-0.6885,0.212,0.6037,0.94
2.441,-0.5807,0.2434,0.7415,0.973
2.448,0.0971,0.2914,0.7057,0.77
2.45,1.1528,0.3415,0.5973,1.342
2.459,1.6417,0.3075,0.5789,1.768
2.461,1.5067,0.2231,0.612,1.642
2.465,1.2069,0.0881,0.7877,1.444
2.47,0.9569,-0.0782,0.9385,1.343
2.476,0.9552,-0.2616,1.0883,1.471
2.481,0.9451,-0.4093,1.3995,1.738
2.485,1.0721,-0.5167,1.4394,1.868
2.49,1.3765,-0.5909,1.385,2.04
2.507,1.5872,-0.6152,1.2671,2.122
2.507,1.6281,-0.6778,1.2693,2.173
2.508,1.1614,-0.6114,1.2213,1.793
2.531,-0.5774,-0.5186,1.8201,1.979
2.532,-2.0565,-0.3445,2.6236,3.351
2.532,-1.9931,0.0324,1.3291,2.396
2.533,-2.4917,0.3356,0.2975,2.532
2.534,-2.8106,0.4399,-0.0268,2.845
2.535,-2.4026,0.4128,-0.3457,2.462
2.538,-1.7435,0.3356,-0.5438,1.857
2.544,-1.2411,0.306,-0.341,1.323
2.548,-0.3429,0.3281,0.1465,0.497
2.553,0.9503,0.4705,0.7472,1.297
2.557,2.0142,0.5578,1.2234,2.422
2.563,2.2349,0.3962,1.0598,2.505
2.567,2.0137,0.0099,-0.0518,2.014
2.571,1.6065,-0.0329,-0.9387,1.861
2.589,1.2374,0.278,-1.0455,1.644
2.589,0.9934,0.5462,-0.5104,1.243
2.59,0.8305,0.6514,0.338,1.108
2.593,0.618,0.6718,1.0361,1.381
2.618,0.8395,-0.1654,1.2287,1.497
2.619,0.6111,-0.4809,1.0586,1.314
2.62,0.3755,-0.5765,0.8174,1.068
2.62,0.3583,-0.5049,0.622,0.878
2.621,0.4647,-0.3976,0.3567,0.708
2.621,0.7265,-0.1303,0.1405,0.751
2.626,0.999,0.3209,0.2808,1.086
2.632,1.3614,0.7212,0.369,1.584
2.634,1.6828,0.927,0.463,1.976
2.64,1.7352,1.1651,0.09,2.092
2.645,1.8044,1.1385,0.4514,2.181
2.65,1.7428,1.0571,1.0655,2.3
2.654,1.5942,0.6692,1.8224,2.512
2.661,1.6869,0.0363,2.2508,2.813
2.665,1.8893,-0.4284,2.1661,2.906
2.67,1.9543,-0.7565,1.999,2.896
2.674,1.6478,-0.9147,1.8452,2.638
2.689,0.9126,-1.039,1.5378,2.068
2.69,0.16,-1.1408,0.9428,1.489
2.691,-0.5341,-0.9976,0.2722,1.164
2.719,-1.061,-0.7163,0.0265,1.28
2.72,-1.412,-0.3373,0.2738,1.477
2.721,-1.5653,-0.0636,0.6456,1.694
2.721,-1.3078,-0.0508,0.9493,1.617
2.721,-0.9139,-0.399,1.0872,1.475
2.721,-0.9776,-0.5247,1.3681,1.761
2.722,-1.6507,-0.2725,1.5385,2.273
2.741,-2.3655,-0.1064,1.1427,2.629
2.742,-2.7659,-0.1614,0.4713,2.81
2.742,-2.735,-0.3671,-0.0898,2.761
2.742,-2.4504,-0.6295,-0.4825,2.576
2.75,-2.1259,-0.8002,-0.6452,2.361
2.751,-1.7594,-0.6829,-0.696,2.012
2.756,-1.5036,-0.3996,-0.6142,1.673
2.762,-1.342,-0.008,-0.455,1.417
2.766,-1.3109,0.4349,-0.365,1.429
2.77,-1.3378,0.8615,-0.3549,1.63
2.775,-1.2608,1.0165,-0.5115,1.698
2.783,-1.025,0.9027,-0.6269,1.503
2.79,-0.8509,0.7382,-0.6449,1.298
2.79,-0.8265,0.6137,-0.6873,1.238
2.816,-0.6367,0.4912,-0.7359,1.09
2.816,-0.3688,0.3397,-1.3052,1.398
2.817,-0.2013,0.1935,-2.0022,2.022
2.818,-0.0563,-0.0454,-2.4716,2.473
2.818,-0.148,-0.1085,-2.5782,2.585
2.819,-0.4133,-0.0078,-2.3055,2.342
2.824,-0.5049,0.1395,-1.837,1.91
2.83,-0.4143,0.2541,-1.4677,1.546
2.835,-0.2968,0.336,-1.5584,1.622
2.838,-0.1817,0.3112,-1.8373,1.872
2.844,-0.2078,0.2252,-1.9798,2.003
2.849,-0.3244,0.1426,-1.8687,1.902
2.852,-0.3868,0.0535,-1.5271,1.576
2.857,-0.3119,-0.1072,-1.0994,1.148
2.862,-0.0924,-0.3543,-0.7621,0.846
2.867,0.2145,-0.5808,-0.6318,0.885
2.871,0.8355,-0.7272,-0.5053,1.217
2.884,1.4162,-0.9303,-0.2624,1.715
2.885,1.9768,-0.7438,0.128,2.116
2.887,2.163,-0.5247,0.2977,2.246
2.891,1.5643,-0.3113,0.2707,1.618
2.899,0.9205,-0.2738,0.2531,0.993
2.901,0.4193,-0.3193,0.0354,0.528
2.906,-0.022,-0.4167,-0.2965,0.512
2.911,-0.4397,-0.6044,-1.1754,1.393
2.915,-0.5963,-0.7406,-2.107,2.312
2.921,-0.6574,-0.8277,-2.0756,2.329
2.925,-0.4389,-0.7319,-1.2301,1.497
2.932,-0.1535,-0.6165,-0.3728,0.737
2.935,0.0641,-0.5396,0.0436,0.545
2.939,0.1303,-0.4321,0.2257,0.505
2.946,0.1482,-0.3156,-0.0239,0.349
2.951,0.2499,-0.166,-0.3969,0.498
2.955,0.1518,-0.1765,-0.3991,0.462
2.962,-0.0701,-0.2153,-0.2396,0.33
2.965,-0.209,-0.2559,-0.0725,0.338
2.97,-0.3398,-0.1547,-0.0611,0.378
2.974,-0.4197,-0.0214,-0.0968,0.431
2.98,-0.4582,0.1683,-0.0584,0.492
2.984,-0.5507,0.338,-0.0207,0.646
2.988,-0.4939,0.4116,-0.1803,0.668
3.012,-0.1952,0.3823,-0.4497,0.622
3.013,0.0396,0.3603,-0.4801,0.602
3.014,0.1158,0.4558,-0.2433,0.529
3.014,0.1676,0.5227,-0.0215,0.549
3.017,0.3094,0.5085,0.0225,0.596
3.054,0.4382,0.5377,0.0493,0.695
3.055,0.2866,0.6268,0.1254,0.701
3.056,0.0989,0.6732,0.0907,0.686
3.057,0.068,0.6555,0.0015,0.659
3.058,-0.0713,0.7148,0.1377,0.731
3.058,-0.2565,0.7699,0.0302,0.812
3.059,-0.2532,0.6728,-0.1688,0.738
3.06,-0.2334,0.5292,-0.3216,0.662
3.061,-0.5196,0.4828,-0.3579,0.794
3.068,-0.9422,0.462,-0.3744,1.114
3.068,-1.1951,0.3759,-0.3432,1.299
3.071,-1.1684,0.1986,-0.2888,1.22
3.076,-0.9862,0.0594,-0.2017,1.008
3.087,-0.6694,-0.0919,-0.1035,0.684
3.087,-0.5756,-0.1644,0.0587,0.602
3.108,-0.2881,-0.2706,0.0945,0.406
3.109,-0.0306,-0.0519,0.2586,0.266
3.109,0.0755,0.3358,0.4606,0.575
3.109,-0.0547,0.6123,0.7398,0.962
3.11,-0.4491,0.6553,1.0613,1.326
3.115,-0.7341,0.3519,1.1669,1.423
3.119,-0.813,-0.1785,1.0082,1.307
3.124,-0.8889,-0.659,0.9628,1.467
3.129,-0.8827,-0.9946,1.3573,1.9
3.135,-1.2178,-1.0593,1.8032,2.42
3.138,-1.4408,-0.9496,1.8378,2.521
3.144,-1.3635,-0.74,1.5309,2.18
3.148,-1.0715,-0.4017,1.2029,1.66
3.153,-0.798,0.1205,0.9248,1.227
3.158,-0.9629,0.7885,0.9349,1.557
3.164,-1.0197,1.1265,0.8277,1.73
3.167,-1.1363,1.1807,0.574,1.736
3.173,-0.9292,0.9661,0.1995,1.355
3.186,-0.6477,0.7393,0.1553,0.995
3.187,-0.5107,0.6534,0.4502,0.944
3.187,-0.4552,0.5866,0.8159,1.103
3.193,-0.4978,0.3788,1.0013,1.181
3.206,-0.5907,0.0327,0.9993,1.161
3.206,-0.6357,-0.368,1.0389,1.272
3.206,-0.6209,-0.7824,1.0654,1.46
3.211,-0.5866,-1.2104,1.1718,1.784
3.216,-0.521,-1.5304,1.2127,2.021
3.22,-0.446,-1.6231,1.1075,2.015
3.225,-0.2973,-1.4242,0.9804,1.754
3.23,-0.3577,-0.9938,0.8407,1.35
3.235,-0.4839,-0.564,0.5971,0.953
3.24,-0.459,-0.3282,0.2894,0.634
3.245,-0.3522,-0.1401,-0.0398,0.381
3.252,-0.2664,0.132,-0.0591,0.303
3.255,-0.1493,0.4162,0.1493,0.467
3.259,-0.0982,0.6193,0.1951,0.657
3.265,0.0369,0.696,-0.0628,0.7
3.27,0.0478,0.6895,-0.3768,0.787
3.274,0.1642,0.5047,-0.5663,0.776
3.282,0.2625,0.2066,-0.6249,0.709
3.284,0.2311,-0.0612,-0.558,0.607
3.289,0.2592,-0.2915,-0.3947,0.555
3.296,0.3587,-0.5201,-0.0703,0.636
3.298,0.2855,-0.7666,0.201,0.842
3.304,0.0702,-1.036,0.2557,1.069
3.309,-0.2167,-1.1758,0.2718,1.226
3.314,-0.3464,-1.129,0.1765,1.194
3.318,-0.3102,-0.9225,-0.1558,0.986
3.322,-0.4517,-0.609,-0.4426,0.878
3.327,-0.7181,-0.3177,-0.6959,1.049
3.334,-0.8606,-0.2182,-0.8965,1.262
3.337,-0.8123,-0.3031,-0.963,1.296
3.342,-0.5868,-0.5123,-0.9551,1.232
3.347,-0.358,-0.7549,-0.7484,1.122
3.351,-0.0243,-1.0069,-0.4643,1.109
3.356,-0.0726,-1.1657,-0.1114,1.173
3.362,-0.1615,-1.2843,0.086,1.297
3.366,-0.1243,-1.3938,0.0567,1.4
3.371,0.2467,-1.4345,-0.1039,1.459
3.375,0.4792,-1.1816,-0.1781,1.287
3.385,0.361,-0.7,-0.1258,0.798
3.39,0.0969,-0.3674,0.0019,0.38
3.391,0.001,-0.2817,-0.0942,0.297
3.401,0.3058,-0.2704,-0.2828,0.497
3.401,0.2687,-0.3163,-0.294,0.509
3.405,0.241,-0.4719,0.163,0.554
3.41,0.2934,-0.6825,0.7275,1.04
3.416,0.4401,-0.7832,1.0299,1.367
3.419,0.6765,-0.8147,1.1494,1.563
3.424,0.8385,-0.8678,1.0068,1.572
3.429,0.9101,-0.9518,0.7907,1.536
3.435,1.0269,-0.971,0.6802,1.568
3.439,1.1344,-0.8178,0.596,1.52
3.445,1.1177,-0.5689,0.6334,1.405
3.448,0.9905,-0.3822,0.9121,1.4
3.453,0.9327,-0.2628,1.0261,1.411
3.458,0.9057,-0.1149,0.8062,1.218
3.463,0.644,0.0754,0.557,0.855
3.468,0.2146,0.3199,0.6051,0.717
3.472,-0.1015,0.4911,0.8691,1.003
3.485,0.03,0.6266,1.0986,1.265
3.486,0.5282,0.6042,1.3369,1.559
3.487,0.9452,0.4861,1.5922,1.914
3.492,1.2174,0.225,1.74,2.136
3.5,1.4178,-0.1065,1.6722,2.195
3.502,1.6119,-0.2897,1.5212,2.235
3.507,1.6809,-0.2189,1.3451,2.164
3.512,1.6157,0.0729,1.1622,1.992
3.516,1.4898,0.5735,0.933,1.849
3.522,1.2358,1.1893,1.0235,1.997
3.526,1.1108,1.6303,1.0614,2.24
3.531,0.9608,1.7672,1.2205,2.353
3.535,0.8449,1.516,1.4723,2.276
3.54,0.8003,0.925,1.2371,1.74
3.546,0.8858,0.3945,0.7588,1.231
3.552,1.0182,0.1738,0.7112,1.254
3.555,0.9709,0.1598,0.3011,1.029
3.56,0.6097,0.4126,-1.353,1.54
3.569,-0.1661,1.0591,-4.0593,4.198
3.569,-1.0261,1.705,-6.6605,6.951
3.574,-1.2388,2.097,-7.011,7.422
3.587,-1.2082,2.003,-4.6493,5.205
3.588,-1.1523,1.1905,-2.7405,3.202
3.594,-1.1636,0.1038,-2.2243,2.512
3.595,-1.1806,-0.7624,-2.2591,2.661
3.611,-0.9751,-1.2308,-2.0381,2.573
3.612,-0.5585,-1.4618,-1.6452,2.271
3.614,-0.2286,-1.606,-1.1785,2.005
3.618,-0.0606,-1.7043,-0.9342,1.944
3.618,0.0939,-1.6973,-0.8152,1.885
3.623,0.1201,-1.6139,-0.5398,1.706
3.63,-0.0412,-1.5832,-0.1275,1.589
3.633,-0.1559,-1.7343,0.103,1.744
3.639,-0.1236,-1.8636,0.2638,1.886
3.642,-0.2886,-1.7298,0.4505,1.811
3.648,-0.4951,-1.4768,0.3075,1.588
3.652,-0.7046,-1.2241,0.1535,1.421
3.657,-0.8261,-0.9478,-0.0454,1.258
3.664,-0.6466,-0.765,-0.048,1.003
3.667,-0.4338,-0.6853,-0.0146,0.811
3.671,-0.3018,-0.6487,0.0212,0.716
3.676,-0.0738,-0.5882,0.0664,0.597
3.682,0.2267,-0.4848,0.3284,0.628
3.686,0.45,-0.4818,0.5158,0.837
3.691,0.4055,-0.4861,0.5979,0.871
3.701,0.1814,-0.3637,0.5249,0.664
3.701,-0.0604,-0.1866,0.4282,0.471
3.705,-0.206,0.0214,0.2814,0.349
3.71,-0.053,0.1742,0.1155,0.216
3.715,0.0323,0.3364,0.1885,0.387
3.719,-0.005,0.5486,0.2323,0.596
3.724,-0.0505,0.6722,0.1704,0.695
3.729,-0.0016,0.7478,0.1082,0.756
3.734,0.094,0.8616,0.0264,0.867
3.739,0.2582,0.9252,0.0013,0.961
3.745,0.4224,0.8883,0.0544,0.985
3.749,0.5015,0.8133,0.0997,0.961
3.754,0.4098,0.724,0.1256,0.841
3.758,0.2597,0.6564,0.1299,0.718
3.766,0.1177,0.5792,0.0289,0.592
3.77,-0.0046,0.4927,-0.1009,0.503
3.774,-0.1528,0.4134,-0.1998,0.484
3.783,-0.234,0.2984,-0.2154,0.436
3.784,-0.2744,0.1835,-0.272,0.428
3.788,-0.2789,0.045,-0.3742,0.469
3.792,-0.1709,-0.0217,-0.4266,0.46
3.806,0.1045,-0.1193,-0.281,0.323
3.807,0.0357,-0.2503,-0.1237,0.281
3.829,-0.7616,-0.3548,-0.0595,0.842
3.831,-1.7933,-0.7125,0.096,1.932
3.831,-0.2923,-1.2012,0.2091,1.254
3.832,0.1408,-1.0012,0.4805,1.119
3.832,0.1556,-0.7512,0.4081,0.869
3.832,0.1108,-0.6689,0.169,0.699
3.837,-0.3188,-0.5676,0.0572,0.654
3.841,-0.4069,-0.5859,0.1037,0.721
3.849,-0.2828,-0.5851,0.0218,0.65
3.852,-0.1211,-0.5366,-0.0595,0.553
3.856,-0.1987,-0.4331,-0.1361,0.496
3.861,-0.3625,-0.3632,-0.2227,0.559
3.867,-0.3404,-0.4129,-0.1759,0.563
3.871,-0.0272,-0.4385,-0.1918,0.479
3.875,0.3165,-0.3541,-0.1173,0.489
3.894,0.6194,-0.2842,-0.0433,0.683
3.896,0.7288,-0.2143,-0.008,0.76
3.897,0.7167,-0.1516,0.1127,0.741
3.903,1.0332,-0.3973,0.7811,1.355
3.904,0.9995,-0.5306,0.2485,1.159
3.907,0.7491,-0.1881,0.4095,0.874
3.92,0.4518,0.0225,0.508,0.68
3.92,0.1814,-0.0468,0.4516,0.489
3.921,-0.1006,0.0751,-0.3835,0.404
3.923,-0.4018,0.4193,0.0285,0.581
3.932,-0.5765,0.3902,0.2631,0.744
3.936,-0.4121,-0.05,0.8286,0.927
3.938,-0.631,-0.0045,-0.5484,0.836
3.943,-0.6522,0.4592,0.0555,0.8
3.949,-0.5276,0.3871,0.2306,0.694
3.952,-0.3384,0.0951,0.1024,0.366
3.957,-0.1299,-0.0125,0.092,0.16
3.964,-0.1366,0.0831,0.0722,0.175
3.968,-0.1985,0.1237,-0.0334,0.236
3.972,-0.0959,0.1116,-0.1174,0.188
3.976,0.2932,0.1139,-0.0554,0.319
3.993,0.546,0.1209,-0.0317,0.56
3.993,0.4741,0.0228,-0.051,0.477
3.994,0.3884,-0.1947,0.637,0.771
4.007,0.1741,-0.6128,0.2146,0.672
4.007,-0.0954,-0.4783,-0.1018,0.498
4.008,-0.3795,0.0313,-0.079,0.389
4.011,-0.5632,0.2032,-0.0732,0.603
4.016,-0.4817,-0.0098,0.1197,0.496
4.021,-0.0346,-0.2347,0.3852,0.452
4.026,0.0611,-0.4187,-0.0318,0.424
4.03,-0.07,-0.33,-0.1164,0.357
4.036,0.0119,-0.2199,0.1906,0.291
4.039,0.0463,-0.2844,0.0746,0.298
4.046,0.0712,-0.2963,0.1121,0.325
4.049,-0.0566,-0.2915,0.1689,0.342
4.054,-0.2866,-0.3345,0.2137,0.49
4.059,-0.4874,-0.4538,0.2389,0.708
4.064,-0.5109,-0.5109,0.1754,0.744
4.069,-0.5171,-0.4006,0.1141,0.664
4.073,-0.5346,-0.2856,0.0221,0.607
4.084,-0.485,-0.276,-0.0382,0.559
4.086,-0.55,-0.2258,0.0645,0.598
4.088,-0.4503,-0.2474,0.1674,0.54
4.094,-0.3102,-0.3335,0.2534,0.521
4.13,-0.0389,-0.4099,0.3869,0.565
4.13,0.2418,-0.3834,0.537,0.703
4.13,0.3124,-0.3283,0.7495,0.876
4.131,0.2877,-0.2925,0.6687,0.784
4.131,-0.0954,-0.1659,0.3738,0.42
4.131,-1.4394,0.0847,-0.0394,1.442
4.132,-3.2956,0.1725,0.1674,3.304
4.132,-0.1982,-0.6432,0.6921,0.965
4.137,0.7883,-0.6238,0.7215,1.237
4.141,0.5234,-0.2985,0.5595,0.822
4.148,0.0302,-0.0644,0.3306,0.338
4.153,-0.5173,0.0666,0.2281,0.569
4.157,-1.2151,0.1689,0.19,1.241
4.161,-1.8336,0.2949,0.0371,1.858
4.167,-2.0694,0.2774,0.0183,2.088
4.171,-2.0251,0.138,0.1382,2.035
4.175,-1.8222,-0.0992,0.2249,1.839
4.191,-1.544,-0.1688,0.3977,1.603
4.192,-1.1351,-0.0257,0.4267,1.213
4.192,-0.5186,0.1461,0.3786,0.659
4.212,0.0572,0.2508,0.3389,0.425
4.212,0.5805,0.0973,0.2407,0.636
4.213,0.4267,-0.0607,0.1515,0.457
4.214,0.1992,-0.3068,0.2701,0.455
4.215,0.2413,-0.5861,0.3724,0.735
4.22,0.1652,-0.7719,0.3103,0.848
4.225,0.0137,-0.8236,0.2482,0.86
4.229,-0.0939,-0.6864,0.2147,0.725
4.234,-0.0717,-0.4753,0.174,0.511
4.239,-0.0654,-0.3315,0.1118,0.356
4.244,0.155,-0.2809,0.1354,0.348
4.248,0.5208,-0.3069,0.1059,0.614
4.255,0.8653,-0.3639,0.0425,0.94
4.259,0.8665,-0.3969,0.0935,0.958
4.265,0.7708,-0.3963,0.1633,0.882
4.268,0.6426,-0.3981,0.2544,0.798
4.273,0.4125,-0.3999,0.4363,0.721
4.277,0.3095,-0.3945,0.3861,0.633
4.286,0.2424,-0.3078,0.2211,0.45
4.287,0.1247,-0.1877,0.1562,0.274
4.292,0.039,-0.0678,0.1052,0.131
4.312,0.1946,0.0519,0.1354,0.243
4.313,0.5984,0.1284,0.0221,0.612
4.314,1.1895,0.2429,-0.0174,1.214
4.315,1.6921,0.2688,0.0166,1.713
4.321,1.8817,0.1536,0.0952,1.89
4.322,1.7116,-0.1336,0.1328,1.722
4.326,1.2275,-0.43,0.2255,1.32
4.343,1.1795,-0.2768,0.5335,1.324
4.344,1.1053,-0.2958,0.4756,1.239
4.345,1.0717,-0.2455,0.3126,1.143
4.355,0.8034,-0.2502,0.0994,0.847
4.355,0.286,-0.2358,0.0249,0.372
4.356,-0.3723,-0.1831,0.1274,0.434
4.359,-1.2092,-0.0875,0.039,1.213
4.37,-1.9114,-0.0159,-0.2239,1.925
4.37,-2.4627,0.3401,0.1265,2.489
4.376,-2.4163,0.3085,-0.4659,2.48
4.382,-2.2974,-0.1866,-0.6345,2.391
4.385,-1.4199,-0.6713,1.3063,2.043
4.389,-0.1021,-1.1149,0.9844,1.491
4.393,-0.3148,-1.6773,-0.4684,1.77
4.402,-0.7479,-1.8541,0.2637,2.017
4.403,-0.8787,-1.7295,1.0445,2.203
4.408,-1.2871,-1.3423,0.9889,2.106
4.414,-1.4015,-0.8936,0.6768,1.795
4.418,-1.1632,-0.5627,0.2782,1.322
4.422,-0.9445,-0.2419,-0.0033,0.975
4.427,1.7701,0.0355,0.6202,1.876
4.433,0.3238,0.5279,1.4143,1.544
4.437,1.4152,0.7665,1.1712,1.99
4.442,1.9173,1.0601,0.204,2.2
4.447,1.2643,1.7572,0.197,2.174
4.452,0.7162,2.4653,0.2572,2.58
4.458,1.3171,2.7089,-0.0655,3.013
4.462,1.0854,2.1682,-0.5805,2.493
4.468,-0.0968,1.3772,-0.0181,1.381
4.473,-0.7286,0.5251,0.5733,1.065
4.476,0.0416,-0.3046,1.3455,1.38
4.484,-0.325,-0.4545,1.1415,1.271
4.486,-0.6148,-0.9435,0.7437,1.35
4.49,-0.2606,-1.1237,0.1325,1.161
4.495,-0.0284,-1.1483,-0.1395,1.157
4.5,-0.0281,-1.1801,-0.1667,1.192
4.504,-0.2304,-1.1927,-0.1647,1.226
4.509,-0.5508,-1.2268,-0.2156,1.362
4.517,-0.5029,-1.1867,0.0559,1.29
4.519,-0.8598,-1.1347,0.2915,1.453
4.526,-1.1763,-1.1116,0.3846,1.664
4.53,-1.3452,-1.0696,0.0821,1.721
4.534,-1.4654,-0.9487,0.0529,1.746
4.538,-1.2389,-0.8089,0.0285,1.48
4.544,-0.7666,-0.6812,0.0614,1.027
4.55,-0.2419,-0.611,0.0153,0.657
4.554,0.3568,-0.5624,-0.0809,0.671
4.558,0.9386,-0.4709,-0.0241,1.05
4.566,1.1473,-0.291,0.0512,1.185
4.57,1.3673,-0.2404,0.3673,1.436
4.573,1.7135,-0.3141,0.4485,1.799
4.579,2.186,-0.328,0.5677,2.282
4.583,2.2537,-0.1363,0.41,2.295
4.588,1.9926,0.1077,0.2814,2.015
4.592,1.7777,0.2368,0.0909,1.796
4.61,1.5335,0.3036,0.0344,1.564
4.611,1.1876,0.3822,0.0587,1.249
4.612,0.7554,0.4655,0.0804,0.891
4.613,0.4259,0.4555,0.1398,0.639
4.638,0.0842,0.369,0.0912,0.389
4.638,-0.3971,0.2731,0.1308,0.499
4.639,-0.6934,0.2107,0.2083,0.754
4.639,-0.9239,0.17,0.2257,0.966
4.639,-0.6065,-0.0928,0.3262,0.695
4.641,-0.4142,-0.1496,0.4339,0.618
4.648,-0.269,-0.1084,0.5469,0.619
4.659,-0.2203,-0.1151,0.4476,0.512
4.66,-0.4155,-0.1553,0.3797,0.584
4.66,-0.6361,-0.1572,0.4054,0.77
4.666,-0.0671,-0.14,0.6129,0.632
4.67,0.2381,-0.2399,0.3519,0.488
4.674,0.3605,-0.3062,0.0174,0.473
4.687,0.5295,-0.2935,0.0586,0.608
4.688,0.9141,-0.3717,0.1428,0.997
4.691,1.1553,-0.4425,0.1313,1.244
4.693,1.2155,-0.3578,0.1126,1.272
4.705,0.9856,-0.2755,0.1082,1.029
4.705,0.5409,-0.1862,0.178,0.599
4.709,0.6208,-0.1233,0.3985,0.748
4.715,0.2376,-0.1226,0.2244,0.349
4.719,0.0137,-0.098,0.2942,0.31
4.724,-0.1251,-0.0807,0.2683,0.307
4.729,-0.4275,-0.085,0.2211,0.489
4.733,-0.3622,-0.0462,0.3031,0.475
4.737,-0.5467,-0.0578,0.2153,0.59
4.742,-0.6032,-0.1292,0.3092,0.69
4.747,-0.7995,-0.1694,0.3123,0.875
4.752,-1.1262,-0.2,0.2845,1.179
4.756,-1.3325,-0.2594,0.3237,1.396
4.763,-1.4783,-0.2757,0.2605,1.526
4.77,-1.5973,-0.2442,0.1042,1.619
4.773,-1.4745,-0.3298,0.0506,1.512
4.777,-1.1768,-0.3627,0.0304,1.232
4.793,-0.9723,-0.324,-0.088,1.029
4.794,-0.6512,-0.3091,-0.1037,0.728
4.794,0.0654,-0.3946,0.0787,0.408
4.813,0.3863,-0.4369,-0.0358,0.584
4.814,0.1999,-0.374,-0.1047,0.437
4.815,0.232,-0.2921,0.1233,0.393
4.815,-0.0266,-0.263,0.1172,0.289
4.822,-0.1259,-0.2626,0.1231,0.316
4.822,-0.4557,-0.1117,0.0647,0.474
4.824,-0.46,-0.016,0.0588,0.464
4.831,-0.3288,-0.0136,-0.0309,0.331
4.836,-0.2609,-0.0255,-0.0895,0.277
4.841,-0.1698,-0.0875,-0.0117,0.191
4.845,-1.3911,-0.0514,-0.7299,1.572
4.849,-2.8186,0.1519,-0.2955,2.838
4.854,-0.9438,-0.0275,1.0613,1.421
4.858,0.3904,-0.3165,0.9633,1.087
4.864,0.914,-0.3111,0.0116,0.966
4.868,1.198,-0.1288,-0.3897,1.266
4.873,1.6732,-0.1282,-0.2764,1.701
4.878,0.9594,-0.185,-0.6051,1.149
4.884,-0.108,-0.0506,-0.1925,0.226
4.888,1.5461,-0.0791,1.2473,1.988
4.892,0.992,-0.0932,0.3389,1.052
4.914,0.5375,-0.0524,-0.1026,0.55
4.914,1.045,-0.332,0.107,1.102
4.915,0.837,-0.2528,0.0063,0.874
4.916,-0.6528,-0.0233,-0.7732,1.012
4.918,-1.1765,0.2872,-0.1203,1.217
4.926,0.2417,0.2938,0.9265,1.002
4.927,-0.2811,0.0781,0.117,0.314
4.946,-0.2169,-0.1587,0.0202,0.269
4.947,-0.1252,-0.247,0.2084,0.347
4.948,-0.0511,-0.2659,0.2944,0.4
4.948,-0.4364,-0.1151,0.1655,0.481
4.952,-0.7045,-0.0195,0.3167,0.773
4.956,-0.6998,-0.0316,0.4589,0.837
4.961,-0.6691,-0.1297,0.3527,0.767
4.967,-0.7727,-0.101,0.1895,0.802
4.971,-0.8482,-0.0485,-0.0717,0.853
4.975,-0.525,-0.0175,0.0829,0.532
4.981,-0.2909,-0.0247,0.077,0.302
4.988,-0.1432,-0.0892,-0.0009,0.169
4.989,0.0043,-0.1345,0.0336,0.139
4.995,-0.9258,-0.1607,-0.5366,1.082
5.009,-4.8579,0.2672,-1.5767,5.114
5.01,-2.5094,0.3599,1.1442,2.781
5.011,-1.1956,-0.2906,0.9385,1.547
5.022,-0.4165,-0.6127,0.1865,0.764
5.023,-0.8475,-0.4228,-0.7492,1.208
5.025,-1.0439,-0.0205,-0.5859,1.197
5.03,-0.8237,0.0492,-0.1472,0.838
5.034,-0.6908,-0.0508,0.1117,0.702
5.039,-0.1043,-0.3083,0.3195,0.456
5.044,0.1167,-0.5106,0.0826,0.53
5.048,-0.0338,-0.4188,-0.2015,0.466
5.052,-0.1133,-0.2124,-0.2841,0.372
5.057,0.0093,-0.0805,-0.1588,0.178
5.062,0.2402,-0.0873,-0.0815,0.268
5.067,0.6318,-0.2687,0.0288,0.687
5.072,0.8499,-0.3781,0.0243,0.931
5.077,0.9712,-0.4182,0.0773,1.06
5.092,1.0909,-0.4249,0.0851,1.174
5.093,1.2398,-0.4554,0.0811,1.323
5.093,1.4105,-0.4765,0.0891,1.492
5.114,1.6033,-0.5214,0.1019,1.689
5.114,1.7753,-0.5185,0.1673,1.857
5.115,1.7426,-0.4846,0.1681,1.817
5.115,1.5271,-0.3839,0.1284,1.58
5.115,1.2553,-0.2786,0.1151,1.291
5.122,1.1255,-0.238,0.1041,1.155
5.126,1.0991,-0.25,0.1264,1.134
5.129,1.219,-0.2452,0.1483,1.252
5.135,0.9162,-0.133,-0.0333,0.926
5.141,0.683,-0.0303,-0.0453,0.685
5.146,0.3562,0.1128,-0.0099,0.374
5.151,0.0237,0.1197,-0.0036,0.122
5.154,-0.2787,0.0621,0.1386,0.317
5.159,-0.4121,-0.012,0.2925,0.505
5.165,-0.5675,-0.0837,0.3363,0.665
5.169,-0.2902,-0.3775,0.4614,0.663
5.174,-0.6909,-0.2098,0.2999,0.782
5.178,-0.9478,-0.0232,0.3584,1.014
5.184,-0.9571,0.0772,0.2137,0.984
5.188,-0.6738,0.0007,0.1553,0.692
5.193,-0.473,-0.1474,0.1138,0.508
5.21,-0.6903,-0.1112,0.0124,0.699
5.21,-0.2493,-0.2085,0.1681,0.366
5.211,0.0486,-0.3127,0.2665,0.414
5.215,0.0569,-0.3093,0.3753,0.49
5.217,-0.0265,-0.3131,0.4701,0.565
5.222,0.4574,-0.6995,0.4982,0.973
5.227,-0.0798,-0.4882,0.4193,0.648
5.232,-0.3261,-0.1817,0.2742,0.463
5.238,-0.5778,0.1075,-0.0259,0.588
5.243,-0.5186,0.2172,0.0397,0.564
5.247,-0.288,0.1499,-0.0433,0.328
5.251,-0.2301,0.035,-0.1312,0.267
5.257,0.0549,-0.0918,0.0842,0.136
5.262,-0.0633,-0.1252,0.077,0.16
5.267,-0.2049,-0.149,0.1797,0.311
5.271,0.0296,-0.2541,0.4235,0.495
5.275,0.2287,-0.3711,0.5289,0.685
5.28,0.1437,-0.3303,0.4243,0.557
5.285,-0.1063,-0.1939,0.2722,0.351
5.289,-0.2705,-0.0457,0.1635,0.319
5.294,-0.2896,0.0091,0.0954,0.305
5.302,-0.1991,0.0017,0.1686,0.261
5.308,-0.5456,0.1162,-0.0235,0.558
5.309,-0.8938,0.2019,-0.0629,0.919
5.314,-1.4026,0.3378,-0.0266,1.443
5.319,-1.6588,0.3732,0.0448,1.701
5.324,-1.4428,0.2152,0.0964,1.462
5.329,-1.2059,0.0334,0.0615,1.208
5.335,-0.9,-0.1003,-0.0381,0.906
5.341,-0.4177,-0.143,0.0151,0.442
5.344,0.0566,-0.243,-0.0416,0.253
5.349,0.2362,-0.295,-0.017,0.378
5.353,0.2101,-0.347,0.115,0.422
5.358,0.041,-0.3751,0.2542,0.455
5.362,-0.0464,-0.4007,0.3671,0.545
5.367,-0.1191,-0.3594,0.2913,0.478
5.372,-0.175,-0.2848,0.2087,0.394
5.377,-0.1211,-0.2294,0.0572,0.266
5.383,-0.0984,-0.1358,-0.008,0.168
5.387,-0.0949,-0.0757,0.0033,0.121
5.391,-0.1392,-0.0062,0.0121,0.14
5.396,-0.174,-0.0156,0.0494,0.182
5.403,-0.1442,-0.0537,0.0483,0.161
5.406,-0.0142,-0.118,0.1761,0.212
5.411,0.0988,-0.1559,0.1485,0.237
5.416,0.1805,-0.1842,0.1066,0.279
5.421,0.1998,-0.1623,0.1127,0.281
5.425,0.1306,-0.0903,0.064,0.171
5.43,0.0783,-0.0661,0.0656,0.122
5.435,-0.0289,-0.0922,0.0745,0.122
5.44,-0.1219,-0.0991,0.1072,0.19
5.444,-0.1626,-0.0677,0.073,0.191
5.45,-0.1534,0.0448,0.0961,0.186
5.455,-0.1255,0.0952,0.0573,0.168
5.459,-0.0935,0.0499,-0.0579,0.121
5.465,-0.0692,-0.012,-0.0368,0.079
5.469,-0.3182,0.0385,-0.1567,0.357
5.474,-0.046,-0.0733,-0.124,0.151
5.478,0.4669,-0.3592,-0.0387,0.59
5.484,0.512,-0.377,0.0854,0.641
5.488,0.4697,-0.2705,0.1975,0.577
5.493,1.2468,-0.7067,0.3169,1.468
5.502,0.6563,-0.5811,-0.051,0.878
5.503,-0.0111,-0.1452,0.0596,0.157
5.508,-0.2064,0.0822,-0.0186,0.223
5.513,-0.1465,-0.0301,-0.2183,0.265
5.518,-0.0704,-0.1517,-0.2122,0.27
5.522,-0.0665,-0.2062,-0.187,0.286
5.527,-0.0169,-0.2917,-0.0304,0.294
5.532,-0.2224,-0.2887,0.0284,0.366
5.537,-0.5038,-0.2763,0.1565,0.595
5.541,-0.8228,-0.1683,0.1153,0.848
5.547,-0.7857,-0.1895,0.2561,0.848
5.551,-0.6196,-0.194,0.1514,0.667
5.556,-0.5464,-0.0527,0.011,0.549
5.562,-0.2916,-0.1458,0.128,0.35
5.567,-0.1439,-0.1647,0.0252,0.22
5.571,-0.4256,0.041,-0.2137,0.478
5.575,-0.5902,0.1557,-0.1759,0.635
5.58,-0.7171,0.1127,-0.0792,0.73
5.585,-0.8708,0.0554,-0.0714,0.876
5.59,-0.9124,0.0102,0.0409,0.913
5.596,-0.8913,-0.0253,0.124,0.9
5.604,-0.872,-0.025,0.1949,0.894
5.604,-0.7097,-0.0462,0.1651,0.73
5.61,-0.4169,-0.1892,0.4172,0.619
5.615,-0.2372,-0.2746,0.1342,0.387
5.62,-0.1126,-0.2954,0.0282,0.317
5.624,-0.1195,-0.1871,0.0489,0.227
5.629,-0.0186,-0.263,0.2463,0.361
5.634,-0.0134,-0.3316,0.3932,0.515
5.639,0.0038,-0.3595,0.485,0.604
5.644,0.0065,-0.287,0.333,0.44
5.649,-0.0579,-0.107,0.1075,0.162
5.653,0.0781,0.0154,0.107,0.133
5.658,0.4768,-0.001,0.2334,0.531
5.663,0.5693,-0.0126,0.2042,0.605
5.668,0.7266,-0.1054,0.1867,0.758
5.672,0.8296,-0.1576,0.2075,0.87
5.677,0.3119,-0.0592,-0.3283,0.457
5.683,-0.7213,0.4478,-0.3355,0.913
5.687,0.5211,0.1536,0.7141,0.897
5.691,0.5675,-0.2766,0.3885,0.741
5.696,0.3733,-0.3955,0.2274,0.589
5.704,0.2515,-0.1941,0.2026,0.377
5.706,0.3833,-0.0241,0.2861,0.479
5.711,0.6248,-0.0335,0.191,0.654
5.716,0.6917,-0.0836,0.127,0.708
5.722,0.4484,-0.0572,0.051,0.455
5.726,0.2967,-0.0141,0.2142,0.366
5.731,0.3775,-0.0763,0.3299,0.507
5.736,0.3635,-0.1887,0.3214,0.521
5.74,0.2238,-0.1815,0.2962,0.413
5.745,0.2355,-0.196,0.4362,0.533
5.752,0.231,-0.2606,0.3399,0.487
5.755,0.9449,-0.6791,0.3207,1.207
5.76,0.0424,-0.3468,0.34,0.488
5.764,-0.164,-0.108,0.2997,0.358
5.77,-0.13,-0.0057,0.2378,0.271
5.774,0.0275,-0.0732,0.1497,0.169
5.779,0.0368,-0.1095,0.1332,0.176
5.789,-0.0468,-0.1194,0.1619,0.207
5.789,-0.4029,-0.0409,-0.0102,0.405
5.794,-0.7399,0.0829,0.1073,0.752
5.808,-0.7119,0.0513,0.3922,0.814
5.809,-0.6039,-0.0734,0.4235,0.741
5.809,-0.6428,-0.1238,0.3661,0.75
5.813,-0.6849,-0.0617,0.2895,0.746
5.821,-0.7065,0.0554,0.108,0.717
5.823,-0.643,0.1173,0.0463,0.655
5.827,-0.501,0.0622,0.0443,0.507
5.833,-0.4738,-0.0359,0.1331,0.493
5.837,-0.5419,-0.1148,0.1931,0.587
5.842,-0.6289,-0.1171,0.1527,0.658
5.847,-0.6729,-0.0501,-0.0098,0.675
5.855,-0.595,0.0144,-0.0624,0.598
5.857,-0.4887,0.0718,-0.0889,0.502
5.872,-0.347,0.0359,-0.0823,0.358
5.874,-0.201,-0.0191,-0.0735,0.215
5.874,-0.1175,-0.0859,-0.0672,0.16
5.876,-0.0773,-0.131,-0.1639,0.224
5.882,-0.0847,-0.1451,-0.1268,0.21
5.891,-0.0706,-0.1734,-0.1426,0.235
5.891,-0.1495,-0.1229,-0.1564,0.249
5.897,-0.0826,-0.1871,-0.1514,0.254
5.905,0.0538,-0.2344,-0.1369,0.277
5.906,0.1281,-0.2674,-0.1226,0.321
5.911,0.0689,-0.2765,-0.1396,0.317
5.916,0.0075,-0.2689,-0.1829,0.325
5.92,-0.099,-0.2636,-0.1763,0.332
5.924,-0.1361,-0.2655,-0.2179,0.369
5.929,-0.1159,-0.2912,-0.1475,0.346
5.936,-0.0503,-0.2787,-0.0463,0.287
5.939,0.0032,-0.2757,0.0044,0.276
5.945,0.059,-0.3038,0.024,0.31
5.949,0.1028,-0.2769,-0.0233,0.296
5.953,0.094,-0.2691,-0.0706,0.294
5.958,0.066,-0.2159,-0.1273,0.259
5.963,-0.0122,-0.1413,-0.1124,0.181
5.969,-0.0402,-0.0907,-0.1382,0.17
5.973,-0.092,-0.0593,-0.1306,0.17
5.978,-0.0721,-0.0684,-0.1471,0.178
5.997,0.0576,-0.0705,-0.0776,0.12
5.998,0.2304,-0.0868,-0.1111,0.27
5.999,0.3245,-0.1247,-0.0681,0.354
6,0.2945,-0.1673,-0.0156,0.339
6.013,0.1501,-0.2099,0.1016,0.277
6.014,-0.037,-0.2142,0.1067,0.242
6.014,-0.2334,-0.2233,0.1477,0.355
6.023,-0.5683,-0.2253,-0.0357,0.612
6.026,-0.5326,-0.1269,0.1231,0.561
6.027,-0.5379,-0.0692,-0.0026,0.542
6.032,-0.5362,-0.0258,-0.0064,0.537
6.036,-0.9319,-0.0781,-0.1297,0.944
6.042,-0.4344,-0.0442,0.1058,0.449
6.047,-0.3561,0.0613,0.0257,0.362
6.051,-0.2061,0.1213,0.1395,0.277
6.056,-0.2141,0.0976,0.105,0.258
6.062,-0.2126,0.0237,0.1254,0.248
6.066,-0.1826,-0.0405,0.2559,0.317
6.07,-0.1526,-0.119,0.2959,0.354
6.075,-0.0437,-0.121,0.2335,0.267
6.079,0.0055,-0.0584,0.0592,0.083
6.091,-0.0525,0.0351,-0.0122,0.064
6.092,-0.1053,0.0806,0.0144,0.133
6.095,-0.1986,0.0735,0.1126,0.24
6.107,-0.2247,0.0426,0.0601,0.236
6.108,-0.2576,0.0474,-0.0069,0.262
6.111,-0.2757,0.0404,-0.0522,0.284
6.114,-0.3751,0.0309,0.065,0.382
6.119,-0.4983,-0.0383,0.0531,0.503
6.123,-0.6385,-0.1265,0.1559,0.669
6.128,-0.6427,-0.2026,0.1606,0.693
6.133,-0.621,-0.2189,0.17,0.68
6.138,-0.5255,-0.2016,0.1148,0.574
6.142,-0.3538,-0.1724,0.1504,0.421
6.147,-0.2279,-0.191,0.0855,0.309
6.152,-0.1262,-0.2239,0.1497,0.297
6.157,0.0324,-0.2902,0.0992,0.308
6.162,0.2383,-0.3635,0.1417,0.457
6.167,0.4582,-0.3937,0.1412,0.62
6.171,0.5273,-0.4,0.1646,0.682
6.176,0.6061,-0.38,0.2812,0.769
6.194,0.6395,-0.3696,0.3311,0.809
6.194,0.4437,-0.2756,0.2137,0.564
6.195,0.2531,-0.177,0.168,0.352
6.198,0.2924,-0.1884,0.2565,0.432
6.214,0.2887,-0.2859,0.1276,0.426
6.214,0.3401,-0.2782,0.1398,0.461
6.215,0.3819,-0.2226,0.2857,0.526
6.221,0.3806,-0.0787,0.3027,0.493
6.222,0.2935,0.0602,0.3439,0.456
6.225,0.1614,0.1822,0.445,0.507
6.23,-0.0275,0.2203,0.5202,0.566
6.235,-0.1656,0.1412,0.4976,0.543
6.24,-0.2222,0.0645,0.3915,0.455
6.246,-0.1542,0.0142,0.1733,0.232
6.251,-0.0049,0.0572,-0.0494,0.076
6.255,0.0942,0.1001,-0.0689,0.154
6.259,-0.2202,0.1119,-0.0121,0.247
6.264,-0.4941,0.0473,0.3145,0.588
6.27,-0.3836,-0.0889,0.5334,0.663
6.275,-0.2827,-0.1556,0.4247,0.533
6.279,-0.1698,-0.2008,0.2946,0.395
6.289,0.0892,-0.1718,0.277,0.338
6.291,0.3245,-0.1883,0.2356,0.443
6.294,0.2849,-0.1595,0.1322,0.352
6.299,0.1191,-0.1331,0.1365,0.225
6.304,-0.1778,-0.1331,0.043,0.226
6.308,-0.7418,-0.078,-0.1174,0.755
6.314,-0.4116,-0.1808,0.3773,0.587
6.317,-0.3447,-0.2548,0.1736,0.462
6.326,-0.3901,-0.2211,-0.291,0.535
6.327,0.0379,-0.1755,0.0544,0.188
6.331,0.2169,-0.1729,0.2035,0.344
6.336,0.2502,-0.1823,0.2164,0.378
6.341,0.2578,-0.3185,0.2176,0.464
6.346,1.1814,-0.6314,0.4409,1.41
6.351,1.177,-0.5713,0.4803,1.394
6.356,0.8377,-0.3897,0.4149,1.013
6.36,0.7505,-0.2132,0.3334,0.848
6.365,0.5493,-0.0896,0.1666,0.581
6.371,0.3873,-0.0379,0.0383,0.391
6.377,0.0901,-0.0771,0.1302,0.176
6.38,-0.3139,-0.1163,0.2435,0.414
6.391,-0.6103,0.0095,0.3493,0.703
6.394,-0.7829,0.2786,0.749,1.119
6.395,-0.9712,0.514,0.6824,1.293
6.408,-1.0559,0.6824,0.556,1.375
6.409,-0.9127,0.7098,0.6971,1.35
6.411,-0.4338,0.5364,1.6222,1.763
6.415,-0.5797,0.2222,0.6855,0.925
6.422,-0.8094,-0.0126,-0.6839,1.06
6.425,-0.829,-0.1943,-0.9999,1.313
6.43,-0.4021,-0.3925,-0.68,0.882
6.436,0.213,-0.5857,-0.1377,0.638
6.439,0.5651,-0.6545,0.1773,0.883
6.443,0.7123,-0.5273,0.3462,0.951
6.447,0.7072,-0.3717,0.403,0.895
6.454,0.4709,-0.2211,0.1422,0.539
6.458,0.362,-0.1138,0.1422,0.405
6.465,0.2081,-0.0854,0.13,0.26
6.469,0.0998,-0.0165,0.1607,0.19
6.474,0.0898,0.0404,0.1578,0.186
6.477,0.2854,0.0996,0.37,0.478
6.482,0.2492,0.1013,0.2593,0.374
6.488,0.0651,-0.0164,0.1484,0.163
6.492,-0.2788,-0.1746,-0.2472,0.411
6.496,-0.225,-0.2274,-0.1718,0.363
6.515,-0.1015,-0.2372,0.1331,0.29
6.517,0.0675,-0.2662,0.5335,0.6
6.518,0.0326,-0.264,0.6227,0.677
6.518,-0.149,-0.2354,0.2912,0.403
6.533,-0.2713,-0.2977,0.0294,0.404
6.535,-0.2772,-0.2953,-0.0549,0.409
6.535,-0.3554,-0.3335,-0.2084,0.53
6.537,-0.1713,-0.3428,0.2379,0.451
6.541,-0.1101,-0.3832,0.2556,0.474
6.545,0.1034,-0.347,0.3449,0.5
6.549,0.3257,-0.349,0.5272,0.711
6.555,0.1985,-0.3128,0.1622,0.404
6.56,-1.6399,-0.4295,3.5511,3.935
6.566,-1.538,-0.1446,1.0948,1.893
6.57,-4.8354,-0.4574,3.5816,6.035
6.575,-5.1776,0.0763,0.0757,5.179
6.581,-1.9274,2.1054,-1.6133,3.279
6.6,0.0381,1.8953,-3.4537,3.94
6.601,0.7858,0.4453,-2.5669,2.721
6.602,1.2785,-0.3431,-0.7263,1.51
6.602,1.6228,-0.4111,0.2263,1.689
6.614,0.9272,-0.6701,0.4485,1.229
6.614,0.5003,-0.8764,1.0009,1.421
6.615,-0.0882,-0.8841,0.3491,0.955
6.622,0.1202,-0.7603,-0.0389,0.771
6.623,0.481,-0.7681,-0.3642,0.977
6.627,0.6655,-0.9981,-0.5196,1.307
6.632,0.4947,-0.7855,-0.7296,1.181
6.637,0.648,-0.8455,-0.7788,1.32
6.642,0.7148,-1.001,-0.7515,1.441
6.646,0.4995,-1.1515,-0.6766,1.426
6.654,0.3366,-1.0915,-0.6495,1.314
6.656,0.1615,-0.9526,-0.5984,1.137
6.661,-0.1167,-0.6967,-0.7314,1.017
6.666,-0.3885,-0.4697,-0.7614,0.975
6.671,-0.6706,-0.4364,-0.727,1.081
6.675,-0.9013,-0.5081,-0.5423,1.168
6.681,-1.1124,-0.5556,-0.2048,1.26
6.691,-1.1708,-0.6696,-0.283,1.378
6.692,-1.0004,-0.4127,-0.7002,1.289
6.695,0.2119,0.456,-1.05,1.164
6.7,1.6625,1.3547,-1.2654,2.49
6.705,1.5071,1.8742,-1.4515,2.809
6.709,0.9823,1.8288,-1.4678,2.542
6.714,0.9083,1.3986,-1.4023,2.179
6.72,0.8649,1.1173,-1.2561,1.891
6.724,0.599,0.6859,-0.7527,1.181
6.729,-0.071,-0.6411,0.3082,0.715
6.735,-0.9307,-1.1728,0.6301,1.624
6.739,-1.2172,-0.9958,0.0191,1.573
6.743,-1.2769,-1.0573,0.0648,1.659
6.748,-1.4292,-1.3379,0.4214,2.003
6.754,-1.3213,-1.6226,0.4972,2.151
6.758,-0.9633,-1.7801,0.663,2.13
6.763,-0.728,-1.8321,0.5665,2.051
6.77,-0.4783,-1.6736,0.5818,1.835
6.773,-0.8694,-0.9798,10.8792,10.958
6.778,-0.126,-0.4833,19.2445,19.251
6.783,2.6983,-1.775,2.5289,4.102
6.789,1.9839,-2.4684,-3.998,5.1
6.792,0.3395,-0.9727,-0.7161,1.255
6.797,0.6502,1.0022,1.5847,1.985
6.816,0.9962,2.741,0.8632,3.041
6.818,1.1653,3.1217,-2.3335,4.068
6.821,0.5164,2.6724,-3.7579,4.64
6.822,-0.1041,2.266,-1.641,2.8
6.833,0.106,2.2398,-0.6378,2.331
6.835,0.2245,2.3256,-0.9167,2.51
6.835,0.2598,1.9752,-0.8662,2.172
6.84,-0.1487,1.3259,-0.9169,1.619
6.841,-0.1144,0.541,-1.0073,1.149
6.845,0.0048,0.0084,-0.7636,0.764
6.85,-0.0783,-0.3009,-0.4776,0.57
6.855,-0.0432,-0.5475,-0.3283,0.64
6.86,-0.0282,-0.686,-0.2903,0.745
6.865,-0.0304,-0.6259,-0.302,0.696
6.871,-0.0446,-0.4464,-0.424,0.617
6.874,0.0633,-0.2624,-0.5249,0.59
6.879,0.2316,-0.1433,-0.5522,0.616
6.891,0.4221,-0.1487,-0.4414,0.629
6.892,0.5995,-0.2667,-0.3336,0.736
6.894,0.6994,-0.3849,-0.2599,0.84
6.899,0.6452,-0.4171,-0.1603,0.785
6.91,0.5203,-0.3562,-0.0944,0.638
6.91,0.3958,-0.2285,-0.0119,0.457
6.913,0.2333,-0.0915,0.0444,0.254
6.919,0.0972,-0.0071,0.0196,0.099
6.923,-0.2585,0.0317,-0.0337,0.263
6.927,-0.482,-0.0371,-0.1133,0.497
6.932,-0.5709,-0.1346,-0.0376,0.588
6.937,-0.6353,-0.2081,0.0765,0.673
6.942,-0.8019,-0.296,0.1834,0.874
6.947,-0.985,-0.4411,0.2066,1.099
6.954,-0.9748,-0.5763,0.2467,1.159
6.959,-0.8629,-0.5726,0.2946,1.077
6.961,-0.7285,-0.4684,0.3695,0.942
6.966,-0.6532,-0.2994,0.4046,0.825
6.972,-0.6104,-0.0851,0.3854,0.727
6.976,-0.363,0.0694,0.3882,0.536
6.981,-0.205,0.2022,0.3675,0.467
6.988,-0.2028,0.4091,0.3495,0.575
6.991,-0.0142,0.2476,0.3126,0.399
6.996,0.0624,0.1436,0.2683,0.311
7,-0.1349,0.0778,0.2382,0.285
7.014,0.0202,-0.0358,0.3203,0.323
7.014,0.1545,-0.0251,0.2899,0.329
7.031,-0.3825,0.1025,0.123,0.415
7.031,-0.3866,-0.0327,0.1998,0.436
7.032,-0.5422,-0.1819,0.0926,0.579
7.032,-0.7492,-0.2448,-0.0073,0.788
7.035,-0.7043,-0.2618,0.1056,0.759
7.039,-0.7518,-0.2905,0.0369,0.807
7.044,-0.5328,-0.2975,0.1331,0.625
7.049,-0.255,-0.2565,0.2386,0.433
7.054,0.6437,-0.065,0.4755,0.803
7.059,0.6813,0.205,0.1695,0.731
7.063,0.229,0.1115,-0.0839,0.268
7.069,0.232,-0.0848,-0.254,0.354
7.073,0.4945,-0.0612,-0.3355,0.601
7.077,0.5146,0.0123,-0.348,0.621
7.083,0.8945,0.0711,-0.1052,0.903
7.089,1.5329,0.1871,0.1132,1.548
7.093,1.3824,0.2336,0.0205,1.402
7.098,1.0336,0.2394,-0.1633,1.073
7.118,0.4552,0.1617,-0.524,0.713
7.124,0.2003,0.3159,-0.4544,0.589
7.125,0.3357,0.4315,-0.1699,0.573
7.126,0.2853,0.4251,0.1236,0.527
7.126,0.0062,0.3277,0.1414,0.357
7.126,-0.2674,-0.0205,0.0606,0.275
7.134,-0.4666,-0.5499,0.0108,0.721
7.142,-0.5529,-1.0022,-0.1083,1.15
7.143,-0.4647,-1.1074,0.0742,1.203
7.146,-0.8003,-1.1024,-0.0318,1.363
7.151,-0.9408,-1.016,-0.0106,1.385
7.156,-1.2904,-1.0035,-0.0989,1.638
7.162,-1.4784,-0.8643,-0.1391,1.718
7.166,-1.3644,-0.5075,0.0986,1.459
7.17,-0.6573,-0.1532,0.4347,0.803
7.175,-0.4305,-0.2079,0.3575,0.597
7.179,-0.6707,-0.0354,0.1153,0.681
7.184,-1.1071,0.161,0.0622,1.12
7.19,-1.4627,0.2879,-0.0333,1.491
7.194,-1.0039,0.3765,0.2586,1.103
7.199,0.2399,0.5655,0.768,0.983
7.217,1.1883,0.6778,0.8375,1.604
7.219,1.606,0.5245,0.5146,1.766
7.221,1.6284,0.5217,0.0768,1.712
7.221,1.4641,0.6429,-0.0571,1.6
7.236,1.3089,0.6584,0.0482,1.466
7.239,0.9072,0.1791,-0.1104,0.931
7.239,0.527,-0.5175,-0.2749,0.788
7.239,0.2398,-0.8955,-0.2723,0.966
7.243,-0.1013,-0.8717,-0.188,0.898
7.247,-0.4355,-0.5706,-0.0415,0.719
7.253,-0.6177,-0.394,-0.0076,0.733
7.258,-0.7485,-0.1743,-0.0525,0.77
7.264,-0.7798,-0.0074,-0.0803,0.784
7.268,-0.8192,0.1715,-0.1342,0.848
7.273,-0.754,0.2929,-0.1142,0.817
7.277,-0.5818,0.2253,-0.0277,0.625
7.282,-0.41,0.1197,0.0248,0.428
7.309,-0.3102,0.16,0.0218,0.35
7.31,-0.2565,0.2577,-0.0362,0.365
7.311,-0.1103,0.3314,-0.1301,0.373
7.312,0.1594,0.0897,-0.0949,0.206
7.313,0.1784,-0.3525,-0.1033,0.408
7.314,-0.0161,-0.4407,-0.0526,0.444
7.316,0.0513,-0.3353,0.0546,0.344
7.335,0.0339,-0.5099,0.2234,0.558
7.336,-0.03,-0.8088,0.225,0.84
7.337,-0.1859,-0.9353,0.2796,0.994
7.337,-0.4196,-0.8085,0.361,0.98
7.343,-0.5266,-0.4906,0.3904,0.819
7.344,-0.3999,-0.1516,0.3395,0.546
7.349,-0.3243,0.1083,0.3061,0.459
7.355,-0.2699,0.3391,0.2586,0.505
7.36,-0.157,0.5814,0.2248,0.643
7.366,-0.0756,0.8351,0.1352,0.849
7.371,-0.0114,1.0165,0.0494,1.018
7.376,0.0046,1.035,-0.0251,1.035
7.38,0.0247,0.9552,-0.0599,0.957
7.384,-0.0246,0.8514,-0.0078,0.852
7.398,-0.1461,0.7237,0.038,0.739
7.399,-0.2612,0.5888,0.0517,0.646
7.399,-0.3301,0.3609,0.0885,0.497
7.414,-0.3239,0.2193,0.0717,0.398
7.415,-0.2026,0.1758,0.0734,0.278
7.415,-0.1221,0.0465,0.0747,0.151
7.417,0.0176,-0.1304,0.0641,0.146
7.424,0.087,-0.3283,0.1231,0.361
7.428,0.1842,-0.4925,0.1445,0.545
7.432,0.2019,-0.6468,0.1142,0.687
7.438,0.1429,-0.7698,0.0657,0.786
7.443,0.0622,-0.7803,0.0085,0.783
7.448,-0.0021,-0.9054,0.0521,0.907
7.453,-0.0957,-1.0614,0.0704,1.068
7.459,-0.2195,-1.0592,-0.0292,1.082
7.463,-0.159,-0.9326,-0.0343,0.947
7.466,-0.0075,-0.763,-0.017,0.763
7.472,0.0824,-0.6388,0.0246,0.645
7.476,0.1348,-0.5098,-0.0073,0.527
7.481,0.2191,-0.3593,-0.0051,0.421
7.485,0.2159,-0.209,0.0118,0.301
7.491,0.2332,-0.1925,0.0167,0.303
7.495,0.2237,-0.0374,0.086,0.243
7.499,0.1895,0.0363,0.0908,0.213
7.518,0.181,0.1483,0.1195,0.263
7.52,0.0461,0.2194,0.1194,0.254
7.521,-0.0888,0.214,0.1193,0.261
7.521,-0.2475,0.168,0.1217,0.323
7.526,-0.344,0.1484,0.1646,0.409
7.529,-0.2301,0.069,0.1715,0.295
7.534,-0.2474,0.0017,0.0779,0.259
7.545,-0.3786,0.0586,0.1372,0.407
7.546,-0.4354,0.0724,0.168,0.472
7.548,-0.4589,0.0815,0.1895,0.503
7.556,-0.392,0.0261,0.1346,0.415
7.559,-0.2849,0.0042,0.0868,0.298
7.563,-0.2902,0.0421,0.008,0.293
7.57,-0.3314,0.099,-0.0515,0.35
7.572,-0.2818,0.1607,-0.0777,0.334
7.578,-0.0577,0.1578,-0.1041,0.198
7.584,0.2513,0.2337,-0.1048,0.359
7.587,0.4473,0.2686,-0.0892,0.529
7.593,0.4587,0.1648,0.0027,0.487
7.597,0.5578,0.0729,0.0299,0.563
7.603,0.5121,-0.0548,0.1168,0.528
7.617,0.4123,-0.1633,0.2108,0.491
7.618,0.2894,-0.2215,0.2403,0.437
7.618,0.1576,-0.196,0.2936,0.387
7.636,-0.0486,-0.1944,0.2181,0.296
7.636,-0.1579,-0.4412,0.1021,0.48
7.637,-0.1587,-0.58,0.1178,0.613
7.637,-0.178,-0.5417,0.1863,0.6
7.641,-0.1084,-0.5606,0.1522,0.591
7.645,-0.1165,-0.5197,0.1041,0.543
7.649,-0.1707,-0.4358,0.0324,0.469
7.656,-0.2015,-0.3782,-0.0248,0.429
7.66,-0.2376,-0.3303,-0.0053,0.407
7.664,-0.3339,-0.2799,0.0141,0.436
7.673,-0.507,-0.2487,-0.0096,0.565
7.675,-0.1449,-0.1937,0.1102,0.266
7.679,0.0231,-0.0694,0.0936,0.119
7.684,-0.0696,0.0667,0.0675,0.118
7.69,-0.0311,0.0951,0.1202,0.156
7.694,0.0097,0.1164,0.2278,0.256
7.699,-0.0453,0.2069,0.2206,0.306
7.723,-0.1287,0.3211,0.1583,0.38
7.724,-0.04,0.4377,0.1343,0.46
7.724,-0.004,0.284,0.0553,0.289
7.724,-0.0821,0.2022,0.0575,0.226
7.725,-0.0906,0.2448,0.0402,0.264
7.729,-0.1158,0.3064,-0.0225,0.328
7.732,-0.163,0.2939,-0.0375,0.338
7.738,-0.2318,0.1954,0.0215,0.304
7.742,-0.2453,0.1329,0.0276,0.28
7.747,-0.2799,-0.0061,0.0049,0.28
7.751,-0.2354,-0.1616,0.0325,0.287
7.757,-0.2031,-0.2572,0.034,0.329
7.762,-0.1382,-0.3669,0.0786,0.4
7.766,-0.1124,-0.4597,0.176,0.505
7.775,-0.073,-0.4903,0.1969,0.533
7.778,-0.0054,-0.4801,0.1607,0.506
7.781,0.05,-0.3935,0.0866,0.406
7.785,0.0574,-0.3644,0.0438,0.371
7.801,0.0049,-0.3711,0.006,0.371
7.802,-0.1024,-0.3468,-0.058,0.366
7.802,-0.1929,-0.3918,-0.0956,0.447
7.82,-0.2975,-0.4941,-0.021,0.577
7.82,-0.4158,-0.4936,0.0296,0.646
7.821,-0.4928,-0.3855,-0.0201,0.626
7.826,-0.5646,-0.3589,-0.0816,0.674
7.827,-0.5952,-0.3347,-0.0784,0.687
7.83,-0.6062,-0.3034,-0.0512,0.68
7.833,-0.5811,-0.2124,-0.0098,0.619
7.84,-0.5036,-0.1167,-0.0017,0.517
7.845,-0.4052,-0.014,0.0639,0.41
7.848,-0.322,0.1245,0.1459,0.375
7.854,-0.2849,0.1697,0.2494,0.415
7.859,-0.2243,0.2865,0.3389,0.497
7.863,-0.0704,0.4438,0.3856,0.592
7.867,0.1767,0.4431,0.2985,0.563
7.874,0.3166,0.409,0.2451,0.572
7.878,0.3114,0.4298,0.2128,0.572
7.882,0.1942,0.4195,0.1494,0.486
7.903,0.0196,0.4474,0.1601,0.476
7.904,-0.0527,0.4587,0.1541,0.487
7.905,-0.039,0.4388,0.0761,0.447
7.906,-0.0036,0.2685,0.0124,0.269
7.912,0.0152,0.084,0.0275,0.09
7.913,0.0293,-0.0883,0.0901,0.13
7.917,-0.0739,-0.2413,0.1812,0.311
7.929,-0.2081,-0.3797,0.186,0.471
7.93,-0.2418,-0.4391,0.1,0.511
7.931,-0.211,-0.5008,0.0096,0.544
7.936,-0.209,-0.5792,-0.0687,0.62
7.947,-0.1524,-0.6,-0.068,0.623
7.948,-0.0454,-0.6257,-0.0914,0.634
7.951,-0.053,-0.637,-0.0742,0.643
7.956,-0.0865,-0.653,-0.0357,0.66
7.961,-0.1243,-0.6237,-0.026,0.637
7.964,-0.1333,-0.5681,-0.0305,0.584
7.969,-0.1112,-0.4672,-0.0946,0.489
7.975,-0.0987,-0.3401,-0.1203,0.374
7.979,-0.0602,-0.2538,-0.0767,0.272
7.984,-0.0119,-0.1772,-0.0428,0.183
8.002,0.039,-0.0696,-0.0137,0.081
8.003,-0.0271,0.0833,0.0893,0.125
8.004,0.055,0.1379,0.1014,0.18
8.029,0.0825,0.1471,0.0561,0.178
8.029,0.0244,0.1969,0.0373,0.202
8.03,0.0646,0.0865,-0.058,0.123
8.03,0.0046,-0.0357,-0.0601,0.07
8.031,-0.1343,-0.1052,0.0332,0.174
8.031,-0.2399,-0.1603,0.1286,0.316
8.033,-0.279,-0.1985,0.1354,0.368
8.038,-0.3111,-0.196,0.0897,0.378
8.042,-0.3768,-0.1409,0.0273,0.403
8.047,-0.443,-0.0859,0.0128,0.451
8.051,-0.4622,-0.0405,-0.0015,0.464
8.057,-0.4225,0.0456,0.0078,0.425
8.062,-0.3786,0.0742,0.0171,0.386
8.066,-0.3614,0.1099,0.0287,0.379
8.074,-0.3709,0.0859,0.0761,0.388
8.077,-0.3235,0.0572,0.0755,0.337
8.081,-0.214,-0.0073,0.0558,0.221
8.086,-0.1543,-0.0503,0.0338,0.166
8.092,-0.1229,-0.0837,-0.0144,0.149
8.096,-0.0891,-0.1386,-0.0385,0.169
8.102,-0.0578,-0.2029,-0.0314,0.213
8.123,-0.1104,-0.2863,-0.0268,0.308
8.124,-0.1394,-0.3385,0.0042,0.366
8.124,-0.138,-0.338,0.0592,0.37
8.125,-0.2902,-0.4044,-0.0122,0.498
8.127,0.2335,-0.3751,0.3157,0.543
8.129,-0.2308,-0.3793,-0.0519,0.447
8.135,-0.0232,-0.3405,0.1043,0.357
8.143,-0.0572,-0.3089,0.0312,0.316
8.144,-0.0172,-0.3156,-0.0392,0.318
8.149,-0.0128,-0.3103,-0.0594,0.316
8.155,-0.0271,-0.2286,-0.0677,0.24
8.159,-0.0363,-0.1518,-0.0307,0.159
8.165,-0.0738,-0.0631,0.0014,0.097
8.169,-0.0463,0.0159,-0.0049,0.049
8.174,-0.014,0.0995,-0.0087,0.101
8.179,0.0545,0.1878,-0.0459,0.201
8.183,0.1327,0.2426,-0.0905,0.291
8.193,0.1347,0.2972,-0.1231,0.349
8.194,0.1179,0.3064,-0.1035,0.344
8.204,0.1251,0.3251,-0.1079,0.365
8.22,0.0579,0.3199,-0.1054,0.342
8.222,0.0358,0.2527,-0.1126,0.279
8.223,-0.0129,0.1735,-0.1248,0.214
8.223,-0.093,0.0467,-0.1157,0.156
8.228,-0.1085,-0.0942,-0.1259,0.191
8.229,-0.2244,-0.1824,-0.1673,0.334
8.232,-0.3928,-0.2251,-0.3043,0.546
8.236,-0.1813,-0.3108,-0.2046,0.414
8.243,-0.1759,-0.2672,-0.184,0.369
8.246,-0.092,-0.25,-0.3139,0.412
8.251,-0.0327,-0.1802,-0.298,0.35
8.257,0.0167,-0.1057,-0.3132,0.331
8.261,0.0013,-0.0742,-0.2496,0.26
8.265,0.153,-0.0954,-0.1265,0.22
8.27,0.2087,-0.064,-0.0322,0.221
8.275,0.1066,-0.0493,-0.1221,0.169
8.28,0.0331,-0.0107,-0.1376,0.142
8.285,-0.0114,0.0302,-0.1433,0.147
8.305,-0.0559,0.0519,-0.1369,0.157
8.306,-0.1027,0.0688,-0.152,0.196
8.307,-0.1279,0.0713,-0.1552,0.213
8.307,-0.1721,0.05,-0.1489,0.233
8.313,-0.2403,0.0096,-0.1857,0.304
8.314,-0.2917,0.0457,-0.201,0.357
8.319,-0.2741,0.0722,-0.1902,0.341
8.329,-0.2591,0.0652,-0.1747,0.319
8.329,-0.2134,0.0416,-0.1237,0.25
8.333,-0.1539,0.0634,-0.0775,0.184
8.34,-0.0973,0.0661,-0.1435,0.186
8.343,0.007,0.0736,-0.2498,0.261
8.349,0.1019,0.1026,-0.2841,0.319
8.352,0.2405,0.0908,-0.2491,0.358
8.359,0.2886,0.0336,-0.1737,0.339
8.362,0.3254,-0.0068,-0.1058,0.342
8.367,0.322,-0.0614,-0.0429,0.331
8.374,0.369,-0.1233,0.0318,0.39
8.378,0.4283,-0.1492,0.0586,0.457
8.383,0.4185,-0.1679,0.0926,0.46
8.386,0.3327,-0.1078,0.0599,0.355
8.394,0.1997,-0.0884,0.0394,0.222
8.397,0.1313,-0.0428,0.0046,0.138
8.402,0.0842,0.0076,-0.0182,0.087
8.427,0.0919,0.0484,0.0117,0.105
8.428,0.1591,0.058,0.0509,0.177
8.428,0.2313,0.0438,0.1354,0.272
8.428,0.2872,0.0104,0.1674,0.333
8.429,0.2484,-0.0087,0.1995,0.319
8.43,0.158,-0.0493,0.2105,0.268
8.435,0.0756,-0.0589,0.1836,0.207
8.448,0.0104,-0.0135,0.0714,0.073
8.448,-0.0331,0.0126,-0.0355,0.05
8.449,-0.0241,0.0626,-0.0154,0.069
8.455,0.0583,0.0553,0.1191,0.144
8.459,0.1371,0.005,0.2555,0.29
8.465,0.1712,0.0266,0.3704,0.409
8.469,0.2202,0.0148,0.3682,0.429
8.474,0.2983,0.0414,0.3449,0.458
8.478,0.3822,0.0202,0.2624,0.464
8.483,0.4127,0.0158,0.2447,0.48
8.493,0.4334,0.009,0.1938,0.475
8.494,0.4402,0.0023,0.1764,0.474
8.497,0.4356,-0.0356,0.1854,0.475
8.503,0.3483,-0.0974,0.1752,0.402
8.508,0.2643,-0.1735,0.1816,0.365
8.513,0.1956,-0.2878,0.1185,0.368
8.517,0.1374,-0.3972,0.1725,0.454
8.523,0.1085,-0.5137,0.1474,0.545
8.528,0.0633,-0.5679,0.1989,0.605
8.532,0.0518,-0.5839,0.1691,0.61
8.536,0.0716,-0.5711,0.1369,0.592
8.543,0.0917,-0.5178,0.0951,0.534
8.546,0.0833,-0.4024,0.0031,0.411
8.552,0.0822,-0.3158,-0.0126,0.327
8.558,0.1099,-0.27,-0.074,0.301
8.562,0.1378,-0.2505,-0.0666,0.294
8.565,0.1564,-0.2549,-0.0071,0.299
8.571,0.1755,-0.2283,0.0019,0.288
8.577,0.0874,-0.2041,-0.0612,0.23
8.582,-0.0049,-0.1346,-0.0338,0.139
8.587,-0.0134,-0.1105,-0.0044,0.111
8.614,-0.067,-0.0913,0.0342,0.118
8.614,-0.0917,-0.0769,-0.0063,0.12
8.615,-0.176,-0.0338,-0.0183,0.18
8.615,-0.1646,-0.0242,-0.0019,0.166
8.615,-0.1795,-0.0266,0.0811,0.199
8.616,-0.1801,-0.0647,0.1589,0.249
8.619,-0.2024,-0.0742,0.2127,0.303
8.629,-0.2177,-0.0263,0.245,0.329
8.629,-0.2025,0.0312,0.213,0.296
8.634,-0.2238,0.1101,0.1908,0.314
8.64,-0.2122,0.1651,0.1376,0.302
8.645,-0.2011,0.2392,0.0679,0.32
8.649,-0.1595,0.2654,0.0316,0.311
8.655,-0.1636,0.2462,0.0359,0.298
8.66,-0.1466,0.2223,0.0425,0.27
8.663,-0.0773,0.141,0.0321,0.164
8.669,-0.0537,0.0815,0.0143,0.099
8.674,0.032,0.01,-0.0131,0.036
8.68,0.0627,-0.0518,0.0955,0.125
8.682,0.1273,-0.1614,0.1514,0.255
8.687,0.1014,-0.266,0.2384,0.371
8.693,0.0544,-0.3395,0.268,0.436
8.697,-0.004,-0.3723,0.2381,0.442
8.702,-0.067,-0.3263,0.187,0.382
8.711,-0.0986,-0.2564,0.0574,0.281
8.713,-0.1039,-0.1627,0.0427,0.198
8.717,-0.0708,-0.1169,-0.0005,0.137
8.721,-0.0927,-0.0641,0.0184,0.114
8.728,-0.1384,-0.0113,-0.0273,0.142
8.732,-0.1579,0.0654,-0.0706,0.185
8.736,-0.1919,0.1013,-0.0614,0.226
8.741,-0.1544,0.0847,-0.0261,0.178
8.746,-0.1626,0.0705,0.0166,0.178
8.751,-0.1736,0.085,-0.0315,0.196
8.758,-0.1971,0.1258,-0.0364,0.237
8.76,-0.2355,0.1689,-0.0843,0.302
8.767,-0.2338,0.2217,-0.0795,0.332
8.771,-0.2036,0.2266,-0.027,0.306
8.777,-0.1736,0.1884,0.0279,0.258
8.784,-0.134,0.0954,0.1138,0.2
8.785,-0.1587,-0.0119,0.1758,0.237
8.792,-0.1807,-0.1024,0.2331,0.312
8.796,-0.2059,-0.17,0.1842,0.324
8.798,-0.2426,-0.2039,0.1241,0.34
8.803,-0.2597,-0.1853,0.0601,0.325
8.816,-0.1768,-0.2785,0.1417,0.359
8.817,0.8681,-1.8791,1.2516,2.419
8.818,1.078,-1.9745,0.7601,2.375
8.833,-0.1703,0.0357,0.5444,0.572
8.834,-0.4618,0.9343,-0.0353,1.043
8.834,-0.2945,0.8185,-0.6266,1.072
8.837,-0.2992,0.5666,-0.7858,1.014
8.842,-0.3584,0.5326,-0.6814,0.936
8.847,-0.2305,0.5703,-0.5999,0.859
8.851,-0.1115,0.5793,-0.4762,0.758
8.858,-0.1091,0.5763,-0.3101,0.663
8.862,-0.1876,0.4705,-0.1826,0.538
8.866,-0.3303,0.2788,-0.0339,0.434
8.87,-0.4062,0.0419,0.0309,0.41
8.876,-0.4562,-0.1587,0.1004,0.493
8.88,-0.4205,-0.2444,0.1031,0.497
8.885,-0.3207,-0.2296,0.111,0.41
8.895,-0.1993,-0.1909,0.0999,0.294
8.895,-0.0992,-0.1858,0.1343,0.25
8.901,-0.0083,-0.1903,0.1876,0.267
8.905,0.0661,-0.2019,0.2194,0.305
8.915,0.0714,-0.2303,0.2221,0.328
8.916,0.0507,-0.2515,0.2126,0.333
8.92,0.0063,-0.232,0.1718,0.289
8.926,-0.0475,-0.2269,0.1046,0.254
8.929,-0.1131,-0.2529,-0.0032,0.277
8.934,-0.1931,-0.3194,-0.1257,0.394
8.94,-0.2829,-0.2592,-0.1912,0.429
8.944,-0.268,-0.2371,-0.2139,0.417
8.95,-0.1913,-0.2486,-0.201,0.373
8.954,-0.0599,-0.2122,-0.2267,0.316
8.958,0.0642,-0.0945,-0.2262,0.253
8.963,0.1624,0.0612,-0.2186,0.279
8.967,0.2303,0.2309,-0.3044,0.446
8.973,0.1703,0.4841,-0.3281,0.609
8.978,0.1739,0.5815,-0.4095,0.732
8.983,0.0759,0.5926,-0.3934,0.715
8.987,-0.0235,0.5177,-0.3826,0.644
9.002,-0.1437,0.4166,-0.3557,0.566
9.002,-0.316,0.2273,-0.2817,0.481
9.003,-0.2973,0.0238,-0.1797,0.348
9.023,-0.2666,-0.0765,-0.1043,0.296
9.024,-0.2092,-0.1481,-0.0769,0.268
9.028,-0.2961,-0.2483,-0.0166,0.387
9.029,-0.4588,-0.3843,0.0033,0.598
9.029,-0.49,-0.5655,0.0591,0.751
9.031,-0.4382,-0.7727,0.1887,0.908
9.036,-0.1923,-0.7979,0.1819,0.841
9.042,-0.0685,-0.443,-0.0315,0.449
9.047,-0.0831,-0.2008,-0.1429,0.26
9.051,-0.0964,-0.15,-0.1938,0.263
9.056,-0.1626,-0.2785,-0.0801,0.332
9.06,-1.2346,-1.3675,0.6057,1.939
9.064,-1.8724,-2.6363,1.7839,3.693
9.069,0.6064,-1.1429,0.7369,1.489
9.074,1.1922,0.4316,-0.8888,1.548
9.079,1.1595,0.2998,-0.6588,1.367
9.084,1.2811,0.9496,-0.6143,1.709
9.089,1.2214,1.589,-0.7478,2.139
9.095,0.5824,1.5176,-0.4635,1.69
9.099,0.0999,0.8917,0.0632,0.899
9.104,-0.0607,0.5247,0.5959,0.796
9.11,-0.1262,0.2895,0.6959,0.764
9.113,-0.2663,0.0427,0.6772,0.729
9.118,-0.281,-0.0675,0.5642,0.634
9.123,-0.125,-0.0175,0.5146,0.53
9.128,0.0202,0.0133,0.4083,0.409
9.134,-0.0429,0.1445,0.2142,0.262
9.138,-0.1437,0.0795,-0.0058,0.164
9.146,0.0093,0.091,0.1498,0.176
9.149,0.1567,0.0069,0.1401,0.21
9.152,0.1229,-0.0292,0.2521,0.282
9.16,0.1186,0.0421,0.443,0.461
9.162,0.108,0.1013,0.5005,0.522
9.167,0.0358,0.0266,0.5011,0.503
9.171,-0.008,-0.0911,0.4282,0.438
9.177,-0.0139,-0.1895,0.3438,0.393
9.181,0.0154,-0.1755,0.2479,0.304
9.186,0.0464,-0.1017,0.2384,0.263
9.209,0.0962,-0.0471,0.2553,0.277
9.21,0.0906,-0.0116,0.3246,0.337
9.21,0.0847,-0.0264,0.3508,0.362
9.211,0.0976,-0.1176,0.248,0.291
9.216,0.0938,-0.1632,0.179,0.26
9.217,0.0831,-0.173,0.127,0.23
9.221,-0.0491,-0.0562,0.0799,0.109
9.239,-0.0855,-0.059,0.1116,0.152
9.24,-0.1431,-0.0929,0.05,0.178
9.241,-0.136,-0.1291,0.0003,0.188
9.243,-0.1073,-0.1318,-0.004,0.17
9.252,-0.1237,-0.0699,0.0894,0.168
9.252,-0.0804,0.0659,0.1945,0.221
9.258,0.0509,0.1825,0.1394,0.235
9.259,0.1294,0.2655,0.027,0.297
9.266,0.2218,0.2982,0.003,0.372
9.268,0.2398,0.3047,-0.0117,0.388
9.275,0.2291,0.1223,0.0021,0.26
9.279,0.2234,0.1457,0.0847,0.28
9.284,0.2537,0.1189,-0.0289,0.282
9.287,0.3297,-0.0345,-0.1376,0.359
9.293,0.3246,-0.2236,-0.189,0.437
9.297,0.2533,-0.2476,-0.2737,0.448
9.303,-0.3285,0.1992,-0.4802,0.615
9.31,-0.3049,0.3323,-0.2947,0.539
9.313,-0.2202,0.2456,-0.0217,0.331
9.317,-0.2493,0.7349,0.1838,0.798
9.321,0.1347,0.5619,0.5945,0.829
9.326,0.1747,-0.5548,0.5949,0.832
9.331,-0.0307,-1.0128,0.7594,1.266
9.336,-0.1864,-1.0546,0.4771,1.172
9.342,-0.1374,-0.8574,0.0618,0.871
9.346,-0.028,-0.6438,-0.1424,0.66
9.35,0.0192,-0.562,-0.1862,0.592
9.355,0.0565,-0.4897,-0.0963,0.502
9.361,0.0648,-0.4582,-0.0212,0.463
9.366,0.056,-0.4194,0.0607,0.427
9.37,0.0444,-0.3807,0.1256,0.403
9.376,0.0039,-0.311,0.1783,0.358
9.38,-0.0008,-0.2652,0.164,0.312
9.384,0.0303,-0.2505,0.1641,0.301
9.389,-0.0415,-0.2431,0.1163,0.273
9.396,-0.1536,-0.238,0.0426,0.286
9.404,-0.2223,-0.19,-0.019,0.293
9.404,0.1606,0.4913,0.0222,0.517
9.409,-0.0778,1.186,-0.1058,1.193
9.414,-0.4303,0.4531,-0.2359,0.668
9.418,-0.0204,0.3856,0.0059,0.386
9.424,-0.1932,0.0911,0.0912,0.232
9.428,-0.1606,-0.1456,0.0569,0.224
9.433,-0.1067,-0.2148,-0.0227,0.241
9.437,-0.0552,-0.2599,-0.0042,0.266
9.443,-0.0202,-0.2071,0.0335,0.211
9.447,-0.0186,-0.1376,-0.0145,0.14
9.452,0.0072,0.0465,-0.067,0.082
9.459,0.0381,0.2853,-0.1311,0.316
9.464,0.0501,0.4138,-0.1497,0.443
9.467,0.0577,0.4323,-0.0635,0.441
9.472,0.0582,0.3742,-0.0133,0.379
9.478,0.0132,0.1896,-0.0299,0.192
9.482,-0.1078,-0.0427,0.0059,0.116
9.487,-0.3808,-0.1217,-0.0301,0.401
9.515,-0.2925,-0.0978,-0.0016,0.308
9.516,-0.1833,-0.0836,-0.0518,0.208
9.517,-0.1274,-0.4445,-0.0991,0.473
9.518,0.0356,-0.3748,-0.0482,0.38
9.519,0.0267,-0.2192,-0.0166,0.221
9.52,0.0256,-0.1904,0.0697,0.204
9.537,-0.1716,0.1131,0.1032,0.23
9.537,-0.4335,0.2298,-0.1894,0.526
9.538,-0.5859,-0.0479,-0.3308,0.675
9.538,-0.2588,-0.0933,-0.2077,0.345
9.541,-0.1836,-0.4661,0.0149,0.501
9.546,0.0901,-0.413,0.2392,0.486
9.55,0.3464,-0.0564,0.1198,0.371
9.554,0.5514,-0.1186,-0.1847,0.593
9.56,0.7677,-0.1615,-0.2617,0.827
9.564,0.7501,0.123,-0.1023,0.767
9.57,0.5375,0.2375,0.064,0.591
9.574,0.0063,0.3469,0.2061,0.404
9.578,-0.1146,0.2435,0.329,0.425
9.585,-0.2146,0.1354,0.1986,0.322
9.59,-0.534,0.0179,0.3431,0.635
9.597,-0.4249,0.056,0.3555,0.557
9.6,-0.3963,0.0629,-0.0065,0.401
9.603,-0.635,-0.1573,0.0764,0.659
9.618,-0.6055,-0.0306,0.1821,0.633
9.619,-0.3403,0.0817,-0.0534,0.354
9.619,-0.2362,-0.0978,-0.1759,0.31
9.622,-0.2086,-0.136,-0.0695,0.259
9.628,-0.126,-0.1431,-0.0996,0.215
9.632,0.0255,-0.1383,-0.2128,0.255
9.636,0.0977,-0.1454,-0.2446,0.301
9.643,0.005,-0.1548,-0.1213,0.197
9.647,-0.1303,-0.2431,0.0062,0.276
9.652,-0.2577,-0.2549,0.1118,0.379
9.657,-0.2463,-0.3335,0.1742,0.45
9.661,-0.0585,-0.2782,0.036,0.287
9.666,-0.0243,-0.2421,-0.0634,0.251
9.67,0.0719,-0.2849,-0.0671,0.301
9.676,0.0841,-0.1651,-0.0041,0.185
9.681,0.0439,-0.1745,0.0134,0.18
9.685,0.0253,-0.1648,0.0404,0.172
9.69,0.2431,-0.1336,-0.162,0.321
9.711,0.3573,-0.0212,-0.3065,0.471
9.713,0.2471,-0.0594,-0.2384,0.348
9.714,0.0658,0.0577,-0.1516,0.175
9.714,-0.1433,0.06,-0.0293,0.158
9.716,-0.3204,-0.0239,-0.0006,0.321
9.72,-0.1605,0.0239,-0.1896,0.25
9.735,-0.1162,0.0047,-0.3494,0.368
9.735,0.0715,-0.1077,-0.2942,0.321
9.736,0.084,0.1864,-0.2128,0.295
9.738,0.1515,0.2865,-0.1888,0.375
9.745,0.7174,0.5204,-0.5227,1.029
9.748,0.6528,0.3931,-0.4948,0.909
9.754,0.6632,0.2588,-0.2552,0.756
9.758,0.661,0.5573,-0.2357,0.896
9.764,0.465,0.2053,-0.0007,0.508
9.767,0.0262,-0.1247,0.4912,0.507
9.773,-0.1772,-0.2153,0.6423,0.7
9.778,-0.0442,-0.2078,0.2873,0.357
9.782,-0.0555,-0.4225,0.0768,0.433
9.786,-0.162,-0.5892,0.1595,0.632
9.803,-0.2322,-0.5477,0.1746,0.62
9.804,-0.2334,-0.5804,0.1207,0.637
9.804,-0.2154,-0.5317,0.0934,0.581
9.807,-0.2525,-0.4616,0.1713,0.553
9.821,-0.337,-0.3988,0.2847,0.595
9.822,-0.476,-0.3026,0.3883,0.685
9.822,-0.5618,-0.2328,0.4487,0.756
9.829,-0.6042,-0.1703,0.4348,0.764
9.833,-0.5533,-0.0912,0.3161,0.644
9.836,-0.4713,-0.048,0.1404,0.494
9.841,-0.3846,-0.0073,0.0224,0.385
9.845,-0.3074,0.0859,-0.0739,0.328
9.849,-0.3019,0.1934,-0.0935,0.37
9.855,-0.3079,0.2218,-0.1228,0.399
9.859,-0.2899,0.212,-0.1425,0.386
9.865,-0.286,0.1711,-0.124,0.356
9.869,-0.2437,0.1159,-0.0865,0.283
9.875,-0.2276,0.0154,-0.0586,0.236
9.879,-0.2139,-0.1137,-0.0023,0.242
9.884,-0.1955,-0.1829,0.0705,0.277
9.889,-0.1627,-0.1946,0.1288,0.284
9.896,-0.2611,-0.2398,0.2731,0.447
9.901,-0.2325,-0.1797,0.398,0.495
9.903,0.1918,0.1479,0.1553,0.288
9.919,0.2083,0.1429,0.0402,0.256
9.92,0.0943,0.1189,0.0946,0.179
9.92,-0.0503,0.0422,0.2325,0.242
9.943,0.0878,0.2524,0.1768,0.32
9.945,0.6208,0.6488,-0.1243,0.907
9.945,0.6502,0.4926,-0.064,0.818
9.946,0.0742,0.1622,0.2222,0.285
9.946,-0.1104,0.1453,0.276,0.331
9.947,-0.0084,0.0614,0.1605,0.172
9.952,0.0191,-0.0893,0.2364,0.253
9.957,0.0487,-0.1465,0.3121,0.348
9.964,0.0113,-0.2205,0.3306,0.397
9.968,-0.045,-0.2226,0.1843,0.292
9.972,-0.0106,-0.1507,0.0814,0.172
9.978,0.088,-0.0549,0.0076,0.104
9.981,0.1074,0.0025,0.0222,0.11
9.985,0.0172,0.0645,0.0628,0.092
9.99,-0.0656,0.1098,0.1083,0.168
9.997,-0.191,0.1096,0.1131,0.248
10,-0.2706,-0.022,0.1991,0.337
10.004,-0.1732,0.0162,0.3443,0.386
10.016,-0.1121,-0.0077,0.2623,0.285
10.017,-0.2324,0.0806,0.1617,0.294
10.019,-0.6025,0.415,0.0997,0.738
10.025,-3.1041,-1.4188,1.2788,3.645
10.029,-2.9222,-0.87,1.574,3.431
10.034,-0.8829,-0.0685,-0.0085,0.886
10.038,0.4658,0.5862,-0.9787,1.232
10.044,0.8499,0.614,-0.9776,1.434
10.05,0.9532,0.4029,-0.5816,1.187
10.054,0.8154,0.2901,-0.3495,0.933
10.059,0.5397,0.2826,-0.1872,0.637
10.064,0.3533,0.3635,-0.0634,0.511
10.069,0.0912,0.1193,0.2437,0.286
10.074,-0.3172,-0.0218,0.5116,0.602
10.078,-0.5166,-0.2393,0.2442,0.619
10.083,-0.5004,-0.4757,-0.1701,0.711
10.087,-0.5292,-0.578,-0.3947,0.878
10.105,-0.4786,-0.4723,-0.4232,0.794
10.106,-0.6235,-0.2066,-0.3727,0.755
10.107,-0.856,0.0659,-0.3198,0.916
10.107,-0.8733,-0.1351,-0.296,0.932
10.126,-0.4514,-0.1183,-0.0963,0.476
10.127,-0.2197,-0.0178,0.1525,0.268
10.127,-0.2781,0.2666,0.2032,0.436
10.127,-0.356,0.3356,0.0372,0.491
10.131,-0.3384,0.2658,-0.0493,0.433
10.135,-0.2803,0.1555,-0.0427,0.323
10.14,-0.2013,0.062,0.0354,0.214
10.147,-0.1587,-0.0527,0.0941,0.192
10.151,-0.1976,-0.1244,0.0834,0.248
10.156,-0.3155,-0.0884,0.0038,0.328
10.161,-0.4715,-0.0238,-0.1302,0.49
10.165,-0.5556,-0.0142,-0.2706,0.618
10.17,-0.4895,-0.0095,-0.3629,0.609
10.175,-0.3451,-0.0884,-0.3142,0.475
10.182,-0.0896,-0.0763,-0.2734,0.298
10.185,0.0241,-0.0546,-0.1852,0.195
10.189,-0.2111,0.0554,-0.1545,0.267
10.208,-1.1031,0.3683,-0.6381,1.327
10.212,-1.8414,0.1524,-1.0276,2.114
10.213,-1.2037,-0.1661,-0.7527,1.429
10.213,0.1558,-1.2893,-0.4236,1.366
10.214,0.613,-1.0751,0.5747,1.364
10.218,0.1348,-0.5382,1.9107,1.99
10.223,0.6224,-0.2551,1.5904,1.727
10.228,1.0816,0.3428,0.3227,1.18
10.233,1.1382,0.5527,-1.0496,1.644
10.238,0.8634,0.4253,-1.3822,1.684
10.242,0.6403,0.3029,-0.6511,0.962
10.248,0.4394,0.3218,0.1934,0.578
10.253,0.2413,0.5248,0.467,0.743
10.258,0.1819,0.7777,0.3227,0.861
10.262,0.1128,0.8916,0.1267,0.908
10.267,0.0891,0.6994,-0.0589,0.708
10.271,-0.0848,0.3426,-0.1126,0.37
10.278,-0.2053,0.0412,-0.1139,0.238
10.282,-0.1419,-0.0615,-0.0869,0.177
10.286,-0.0196,-0.1281,-0.0892,0.157
10.29,-0.0029,-0.1755,-0.1588,0.237
10.309,0.0349,-0.3662,-0.3049,0.478
10.31,0.0441,-0.6643,-0.41,0.782
10.311,-0.0869,-0.7588,-0.3476,0.839
10.321,-0.1335,-0.6382,-0.2159,0.687
10.322,-0.0701,-0.501,-0.1345,0.523
10.322,-0.0236,-0.3639,-0.0269,0.366
10.335,0.0371,-0.2199,0.0373,0.226
10.336,0.088,-0.0497,0.0487,0.112
10.338,0.1716,0.0606,0.0053,0.182
10.339,0.207,0.1109,-0.0928,0.252
10.346,0.1918,0.1421,-0.1812,0.3
10.349,0.136,0.0991,-0.2313,0.286
10.354,0.0042,0.0778,-0.2385,0.251
10.359,-0.0937,0.0636,-0.241,0.266
10.363,-0.1268,0.0351,-0.2818,0.311
10.368,-0.1647,0.0114,-0.3346,0.373
10.372,-0.1593,-0.0218,-0.3588,0.393
10.378,-0.1324,-0.0549,-0.3427,0.371
10.383,-0.0673,-0.0641,-0.3123,0.326
10.387,0.0239,-0.047,-0.2794,0.284
10.402,0.072,-0.0969,-0.2153,0.247
10.402,0.0321,-0.0941,-0.1321,0.165
10.403,0.0258,-0.0603,-0.1467,0.161
10.408,0.0721,-0.0648,-0.1297,0.162
10.42,0.0015,-0.0717,-0.0933,0.118
10.421,-0.002,0.0719,-0.0015,0.072
10.422,0.1511,0.0313,0.0812,0.174
10.428,0.0057,-0.1622,0.2263,0.279
10.433,-0.1651,0.1009,0.3431,0.394
10.436,0.1147,0.1271,0.2912,0.338
10.441,-0.0048,-0.2459,0.3235,0.406
10.446,-0.4184,-0.0402,0.449,0.615
10.451,-0.2562,0.1629,0.4128,0.512
10.455,0.0238,0.2868,0.3344,0.441
10.46,0.0923,0.076,0.3711,0.39
10.468,-0.2111,-0.0007,0.4983,0.541
10.471,-0.3055,0.1115,0.4226,0.533
10.475,-0.1874,0.1756,0.2882,0.386
10.48,-0.1079,0.1895,0.2046,0.299
10.484,-0.0834,0.1316,0.2767,0.318
10.489,-0.0875,0.1145,0.3056,0.338
10.503,-0.0747,0.1093,0.3108,0.338
10.504,-0.043,0.0945,0.2826,0.301
10.514,0.0222,0.0965,0.2686,0.286
10.515,0.0633,0.1989,0.2569,0.331
10.515,0.0946,0.2677,0.2212,0.36
10.53,0.0826,0.2911,0.1903,0.357
10.531,0.0489,0.2762,0.1593,0.323
10.531,0.0101,0.192,0.1546,0.247
10.533,-0.0288,0.0721,0.1592,0.177
10.538,-0.0724,-0.0094,0.1923,0.206
10.546,-0.0681,-0.0907,0.1345,0.176
10.548,0.0175,-0.1386,0.1341,0.194
10.553,0.0479,-0.1027,0.1481,0.186
10.557,0.0422,-0.1003,0.1764,0.207
10.563,0.0079,-0.2126,0.1425,0.256
10.567,-0.057,-0.1957,0.1158,0.234
10.571,-0.1145,-0.2004,0.144,0.272
10.578,-0.1885,-0.2528,0.1264,0.34
10.583,-0.1999,-0.1953,0.1232,0.305
10.586,-0.1969,-0.1761,0.144,0.301
10.591,-0.1771,-0.1568,0.1718,0.292
10.605,-0.1596,-0.1831,0.1159,0.269
10.606,-0.1779,-0.171,0.1057,0.268
10.606,-0.2577,-0.3168,0.1169,0.425
10.63,-0.4462,-0.2305,0.0778,0.508
10.631,-0.3409,0.0157,0.0127,0.341
10.632,-0.1075,0.0012,-0.0952,0.144
10.632,-0.1349,-0.1567,-0.0956,0.228
10.634,-0.2215,-0.2451,0.0374,0.332
10.635,-0.1954,-0.2617,0.0958,0.34
10.641,-0.1572,-0.3117,0.104,0.364
10.646,-0.157,-0.1729,0.1002,0.254
10.649,-0.0519,-0.168,0.1179,0.212
10.656,-0.0141,-0.2253,0.1114,0.252
10.66,-0.0597,-0.1965,0.1165,0.236
10.665,-0.0528,-0.1462,0.0595,0.166
10.668,-0.0316,-0.084,0.1195,0.149
10.673,-0.0367,-0.0362,0.129,0.139
10.678,-0.0323,0.1,0.21,0.235
10.683,-0.0065,0.1237,0.1737,0.213
10.688,0.0596,0.2454,0.1204,0.28
10.706,0.1277,0.1901,0.098,0.249
10.707,0.1526,0.252,0.0943,0.309
10.707,0.2085,0.2278,0.1142,0.329
10.729,0.2022,0.2204,0.1147,0.32
10.73,0.2247,0.1484,0.1244,0.297
10.73,0.1135,0.079,0.1577,0.21
10.731,0.0552,0.0359,0.1551,0.169
10.731,0.0043,0.0001,0.0975,0.098
10.733,0.0059,-0.0788,0.0471,0.092
10.737,-0.0236,-0.1073,0.0399,0.117
10.741,-0.0484,-0.1406,0.078,0.168
10.747,-0.0588,-0.2169,0.0945,0.244
10.752,-0.1383,-0.2596,0.049,0.298
10.756,-0.192,-0.2788,0.0228,0.339
10.763,-0.1999,-0.1507,0.0278,0.252
10.766,-0.0871,-0.045,0.0544,0.112
10.771,-0.3908,-0.695,-0.4275,0.905
10.775,-0.6263,0.2018,0.167,0.679
10.781,0.1597,0.3736,0.34,0.53
10.786,0.5219,0.2083,0.0806,0.568
10.791,0.289,0.1364,-0.0207,0.32
10.81,0.1884,-0.0238,0.0236,0.191
10.811,0.0768,-0.0978,-0.0037,0.124
10.812,-0.7373,-0.7001,-0.4895,1.128
10.812,-0.883,0.2684,0.304,0.972
10.816,-0.0654,0.3134,0.2792,0.425
10.82,0.2379,-0.012,-0.1966,0.309
10.826,-0.1228,0.0143,-0.1604,0.202
10.834,-0.3462,-0.2438,-0.1724,0.457
10.835,-0.2455,0.0623,0.167,0.303
10.838,-0.1125,0.0072,-0.0026,0.113
10.845,-0.0155,0.1887,0.01,0.19
10.849,-0.015,0.1932,-0.0015,0.194
10.854,0.0429,0.1189,-0.0443,0.134
10.858,-0.035,0.0494,-0.1465,0.158
10.863,-0.0862,0.0636,-0.141,0.177
10.867,-0.1278,0.0347,-0.181,0.224
10.871,-0.1428,0.0681,-0.226,0.276
10.878,-0.2818,-0.0324,-0.2404,0.372
10.882,-0.4561,-0.1424,-0.2095,0.522
10.888,-0.5417,-0.2283,-0.1356,0.603
10.892,-0.5006,-0.2329,-0.1071,0.562
10.902,-0.3809,-0.161,-0.0953,0.424
10.902,-0.2905,-0.1512,-0.1433,0.357
10.909,-0.1814,-0.034,-0.1554,0.241
10.913,-0.1016,-0.0674,-0.2512,0.279
10.915,-0.0719,-0.0721,-0.328,0.343
10.92,-0.0827,-0.0744,-0.3307,0.349
10.925,-0.1457,-0.0743,-0.3052,0.346
10.93,-0.1819,-0.0766,-0.2607,0.327
10.935,-0.232,-0.0861,-0.2187,0.33
10.939,-0.2244,-0.0717,-0.1912,0.303
10.945,-0.2118,-0.0788,-0.1804,0.289
10.949,-0.0986,-0.0907,-0.0981,0.166
10.957,-0.0664,-0.105,-0.1162,0.17
10.96,-0.0888,-0.0453,-0.134,0.167
10.965,-0.0754,-0.0788,-0.1304,0.17
10.97,-0.0641,-0.0979,-0.1269,0.173
10.974,-0.1121,-0.1314,-0.2215,0.281
10.98,-0.1385,-0.0381,-0.1106,0.181
10.983,-0.1243,0.0431,0.0257,0.134
10.988,-0.1843,0.2031,-0.0158,0.275
10.997,0.2557,0.1599,0.0593,0.307
10.998,0.4456,0.0761,0.2341,0.509
11.003,0.4221,0.0045,0.2814,0.507
11.007,0.406,-0.0431,0.1349,0.43
11.012,0.376,-0.2102,-0.1712,0.464
11.017,0.2394,0.01,-0.2731,0.363
11.022,0.151,0.1558,-0.224,0.312
11.028,0.101,0.2154,-0.1057,0.26
11.032,0.0178,0.294,0.0147,0.295
11.037,-0.0746,0.1025,-0.0182,0.128
11.042,-0.3259,0.0617,-0.0127,0.332
11.048,-0.3664,-0.0245,-0.0023,0.367
11.051,-0.3238,-0.0866,0.0869,0.346
11.056,-0.2245,-0.1916,0.097,0.311
11.067,-0.19,-0.2009,-0.0549,0.282
11.067,-0.0985,-0.2126,-0.1583,0.283
11.07,-0.0072,-0.2649,-0.1731,0.317
11.075,0.029,-0.2813,-0.1042,0.301
11.081,0.0677,-0.2761,-0.0214,0.285
11.085,0.0969,-0.1993,0.0729,0.233
11.089,0.1571,-0.1703,0.1311,0.266
11.099,0.1622,-0.0984,0.0936,0.212
11.1,0.1913,-0.0146,0.0541,0.199
11.105,0.242,0.0643,0.0102,0.251
11.113,0.2401,0.1622,0.0238,0.291
11.115,0.2384,0.2408,0.0417,0.341
11.119,0.2679,0.1928,0.1334,0.356
11.124,0.2685,0.1137,0.1482,0.327
11.129,0.2521,0.0204,0.0579,0.259
11.134,0.2258,-0.0107,-0.0252,0.227
11.138,0.1567,0.0802,0.0065,0.176
11.144,0.0663,0.0969,0.0141,0.118
11.148,-0.0072,0.1159,-0.009,0.117
11.152,-0.0685,0.0967,-0.1034,0.157
11.159,-0.1273,0.0488,-0.1163,0.179
11.166,-0.1503,-0.0421,-0.0982,0.184
11.169,-0.202,-0.1734,-0.0658,0.274
11.174,-0.2512,-0.3047,-0.0644,0.4
11.181,-0.444,-1.0427,-0.1611,1.145
11.183,-0.446,-0.9362,-0.0809,1.04
11.188,-0.0572,-0.3231,0.1947,0.382
11.192,0.0962,-0.2866,0.1516,0.338
11.197,0.0926,-0.0735,-0.0195,0.12
11.202,0.1445,0.0533,-0.1796,0.237
11.206,0.3116,0.0269,-0.1891,0.365
11.221,0.3214,0.0532,-0.1153,0.346
11.222,0.2505,0.0674,-0.0321,0.261
11.222,0.1992,0.1701,0.0649,0.27
11.227,0.1551,0.1651,0.1043,0.249
11.24,0.1346,0.2246,0.117,0.287
11.24,0.1067,0.026,0.0607,0.125
11.242,0.0217,-0.1461,-0.0411,0.153
11.247,-0.0437,-0.2272,-0.0564,0.238
11.25,-0.0827,-0.1361,-0.0479,0.166
11.255,-0.0861,-0.1168,0.0059,0.145
11.259,-0.1204,-0.0354,-0.0073,0.126
11.265,-0.1356,-0.0043,-0.0134,0.136
11.269,-0.1459,0.0291,-0.091,0.174
11.274,-0.1107,0.1366,-0.0035,0.176
11.28,-0.2232,0.1436,0.129,0.295
11.284,-0.1439,0.0956,0.1202,0.21
11.289,-0.5955,0.1814,0.0993,0.63
11.308,-0.5974,0.4893,0.0761,0.776
11.308,-0.0283,0.2497,0.0051,0.251
11.309,0.1329,0.0726,-0.0442,0.158
11.31,0.1767,-0.0446,-0.1075,0.212
11.337,0.2298,-0.121,-0.1183,0.285
11.337,0.2352,-0.1352,-0.1148,0.295
11.337,0.2258,0.0299,-0.0132,0.228
11.337,0.2661,0.1351,0.0955,0.313
11.338,0.2889,0.2665,0.2305,0.456
11.338,0.3136,0.1515,0.2266,0.416
11.344,0.207,0.0463,0.1057,0.237
11.349,0.1271,0.0368,0.0018,0.132
11.352,0.0856,0.0057,-0.0346,0.093
11.356,0.0061,-0.0325,-0.0494,0.059
11.362,-0.0566,-0.073,-0.0832,0.124
11.367,-0.0977,-0.0968,-0.0474,0.145
11.371,-0.1867,-0.1205,-0.0693,0.233
11.376,-0.2183,-0.1108,-0.1055,0.267
11.382,-0.2187,-0.0939,-0.1512,0.282
11.386,-0.2071,-0.0435,-0.173,0.273
11.391,-0.1407,-0.0338,-0.1328,0.196
11.401,-0.1578,0.0164,-0.1141,0.195
11.401,-0.1844,0.0643,-0.0763,0.21
11.406,-0.1942,0.0857,0.0163,0.213
11.414,-0.2665,0.0929,0.2395,0.37
11.415,-0.0374,-0.0099,0.0804,0.089
11.42,-0.0665,-0.0815,-0.0034,0.105
11.425,-0.1074,-0.1268,0.1131,0.201
11.431,-0.0626,-0.1385,0.2264,0.273
11.435,-0.0064,-0.1167,0.1265,0.172
11.439,0.0852,-0.0877,-0.0662,0.139
11.444,0.205,-0.1257,-0.1938,0.309
11.45,0.2221,-0.1828,-0.259,0.387
11.453,0.1893,-0.2135,-0.1976,0.347
11.458,0.0066,-0.4163,0.8793,0.973
11.465,-0.3304,-0.2341,0.2918,0.499
11.47,-0.1079,-0.1191,-0.1203,0.201
11.474,0.0281,0.0173,-0.2067,0.209
11.481,0.0276,0.0699,-0.2686,0.279
11.485,0.0083,0.0173,-0.2157,0.217
11.488,-0.0512,0.0077,-0.2156,0.222
11.492,-0.0721,0.0029,-0.1276,0.147
11.498,-0.1001,-0.021,0.0385,0.109
11.503,-0.0663,-0.0256,0.199,0.211
11.507,0.0097,-0.0039,0.244,0.244
11.526,0.1232,0.0417,0.277,0.306
11.527,0.1839,0.0681,0.2334,0.305
11.528,0.2229,0.0586,0.1377,0.268
11.528,0.2907,0.1376,0.0329,0.323
11.555,0.2367,-0.0226,0.0456,0.242
11.556,0.0356,0.054,-0.0018,0.065
11.556,0.2053,0.023,-0.2045,0.291
11.557,0.1284,0.1593,-0.1534,0.256
11.557,-0.2184,-0.0535,0.4303,0.486
11.557,-0.5092,0.047,0.3458,0.617
11.561,-0.1793,0.0543,0.1326,0.23
11.566,0.1015,0.1022,0.1329,0.196
11.57,0.2835,0.2337,0.1051,0.382
11.574,0.4502,0.2455,0.147,0.533
11.58,0.4445,0.1904,0.1437,0.504
11.585,0.2028,-0.1706,0.3074,0.406
11.589,-0.202,-0.3877,0.3936,0.588
11.594,-0.1759,0.012,-0.0914,0.199
11.601,0.2956,0.3108,-0.3715,0.567
11.604,0.3948,0.0836,-0.1157,0.42
11.608,-0.0139,-0.4684,0.3373,0.577
11.613,-1.221,-1.6986,1.4979,2.573
11.618,-1.5892,-0.3343,0.3144,1.654
11.624,-0.1624,0.2636,-0.4176,0.52
11.63,0.3495,0.3206,-0.4231,0.636
11.633,0.0486,0.0813,0.1011,0.139
11.639,-0.229,-0.215,0.5396,0.624
11.643,-0.4812,-0.1765,0.3892,0.644
11.648,-0.5127,-0.095,0.1939,0.556
11.653,-0.3578,-0.0089,-0.0058,0.358
11.658,-0.1461,0.0772,-0.04,0.17
11.663,0.0651,0.2085,-0.038,0.222
11.667,0.3327,0.2991,-0.1358,0.468
11.671,0.5631,0.3943,-0.1974,0.715
11.676,0.6944,0.3819,-0.1512,0.807
11.682,0.6719,0.2835,-0.0289,0.73
11.686,0.5062,0.1065,0.1575,0.541
11.691,0.2744,-0.0967,0.317,0.43
11.712,0.0554,-0.2709,0.3421,0.44
11.713,-0.0719,-0.3637,0.2501,0.447
11.714,-0.1725,-0.3895,0.1872,0.465
11.715,-0.2391,-0.3675,0.182,0.475
11.717,-0.3555,-0.305,0.1149,0.482
11.721,-0.4024,-0.2138,0.0314,0.457
11.725,-0.4016,-0.1371,-0.0592,0.428
11.732,-0.3603,-0.0461,-0.1283,0.385
11.735,-0.2836,0.0161,-0.1736,0.333
11.74,-0.193,0.0496,-0.1522,0.251
11.748,-0.0957,0.0615,-0.1025,0.153
11.752,0.03,0.0568,-0.0173,0.067
11.755,0.0909,0.0521,0.0246,0.108
11.76,0.1615,0.033,0.0141,0.165
11.765,0.1915,0.0043,-0.0322,0.194
11.769,0.2051,-0.0028,-0.0425,0.209
11.773,0.1901,-0.029,-0.0433,0.197
11.781,0.173,-0.0337,-0.0082,0.176
11.784,0.1726,0.0118,0.0222,0.174
11.788,0.1866,0.0477,0.005,0.193
11.793,0.1838,0.1074,0.0382,0.216
11.798,0.1784,0.136,0.0906,0.242
11.803,0.1705,0.1143,0.1026,0.229
11.807,0.2105,0.0855,0.0884,0.244
11.827,0.0798,0.0877,0.1508,0.192
11.828,-0.2951,0.0946,0.0576,0.315
11.829,-0.1636,0.0824,-0.114,0.216
11.829,0.0646,0.001,-0.1371,0.152
11.853,0.077,-0.023,-0.0481,0.094
11.854,0.0246,-0.0158,0.0094,0.031
11.854,-0.0062,-0.0373,0.0932,0.101
11.855,-0.0752,-0.0946,0.1408,0.186
11.855,-0.1393,-0.073,0.1621,0.226
11.856,-0.0987,-0.0395,0.1357,0.172
11.861,-0.0181,-0.037,0.0926,0.101
11.869,0.0618,-0.0297,0.0712,0.099
11.871,0.0889,-0.0177,0.0092,0.091
11.876,0.0989,-0.008,-0.0264,0.103
11.882,0.092,-0.0008,-0.0691,0.115
11.886,0.1019,0.04,-0.0857,0.139
11.889,0.1164,0.0424,-0.0593,0.137
11.908,0.1192,0.0257,-0.0546,0.134
11.909,0.0767,-0.0005,-0.0046,0.077
11.909,0.0488,0.0139,0.0166,0.053
11.91,-0.0004,-0.0243,0.033,0.041
11.931,-0.0828,-0.0648,0.0634,0.123
11.931,-0.1625,-0.1243,0.0649,0.215
11.932,-0.206,-0.1432,0.028,0.252
11.932,-0.2348,-0.1573,-0.0234,0.284
11.933,-0.2802,-0.2454,-0.0174,0.373
11.938,-0.4324,-0.2953,0.0673,0.528
11.943,-0.4978,-0.3665,0.0824,0.624
11.949,-0.4812,-0.2203,0.0163,0.529
11.954,-0.1641,0.0094,-0.1785,0.243
11.958,0.1681,0.0692,-0.2867,0.339
11.965,0.2005,0.1266,-0.2611,0.353
11.968,0.2181,0.2174,-0.1737,0.354
11.972,0.3517,0.3464,-0.2561,0.556
11.976,0.5366,0.3175,-0.2906,0.688
11.984,0.4654,0.1811,-0.2012,0.538
11.992,0.3252,0.033,-0.1171,0.347
11.992,0.1883,-0.091,-0.0524,0.216
12.01,-0.0049,-0.1982,-0.007,0.198
12.011,-0.1013,-0.2145,-0.0501,0.242
12.011,-0.1827,-0.1448,-0.1026,0.255
12.012,-0.3113,-0.2711,0.1247,0.431
12.033,-0.4085,0.0114,-0.0069,0.409
12.033,-0.2151,0.2791,-0.1905,0.401
12.034,0.0109,0.1857,-0.1009,0.212
12.034,-0.105,0.0447,0.0959,0.149
12.035,-0.1586,0.0137,0.0843,0.18
12.04,-0.1333,-0.0602,0.0965,0.175
12.047,-0.1654,-0.0384,0.0798,0.188
12.052,-0.159,-0.117,0.173,0.263
12.055,-0.1955,-0.1765,0.2468,0.361
12.059,-0.1624,-0.2812,0.2799,0.429
12.066,-0.1624,-0.3524,0.3226,0.505
12.07,-0.2075,-0.273,0.2698,0.436
12.074,-0.2355,-0.0765,0.1816,0.307
12.082,-0.2228,0.0837,0.1176,0.266
12.084,-0.1313,0.1434,0.1448,0.242
12.089,-0.0827,0.1051,0.2128,0.251
12.093,-0.0865,0.1169,0.2354,0.277
12.1,-0.1235,0.1622,0.246,0.319
12.105,-0.0888,0.2241,0.2278,0.332
12.109,-0.0779,0.2693,0.2145,0.353
12.127,-0.0502,0.2378,0.2133,0.323
12.128,-0.1483,0.1562,0.1954,0.291
12.129,-0.2147,0.0747,0.1179,0.256
12.129,-0.1521,0.0052,0.0574,0.163
12.147,-0.0776,-0.014,0.0615,0.1
12.148,0.006,0.1723,0.073,0.187
12.148,0.6011,0.662,-0.4047,0.982
12.149,0.8851,-0.1131,-0.0183,0.892
12.153,0.1861,-0.2922,0.2396,0.421
12.157,0.0718,-0.1388,0.2147,0.266
12.162,0.1982,-0.1649,0.1018,0.277
12.167,0.0902,-0.1958,0.154,0.265
12.172,-0.1175,-0.1549,0.1151,0.226
12.177,-0.0476,-0.2025,0.1358,0.248
12.18,-0.0613,-0.0397,0.1038,0.127
12.185,0.0516,-0.0229,0.0288,0.063
12.19,0.0785,0.013,-0.0344,0.087
12.195,0.0887,0.0943,-0.0235,0.132
12.201,0.0393,0.1325,0.0158,0.139
12.205,0.1783,0.2566,-0.1242,0.336
12.211,-0.0509,-0.3697,0.2544,0.452
12.216,-0.2611,0.6441,-0.1644,0.714
12.221,0.9323,0.3017,-0.2821,1.02
12.224,0.344,-0.0881,0.0996,0.369
12.231,-0.4562,-0.1691,0.3358,0.591
12.236,-0.4448,-0.2572,0.4206,0.664
12.239,-0.3071,-0.1086,0.1427,0.356
12.244,-0.0961,-0.1322,-0.0338,0.167
12.249,-0.0482,-0.1535,-0.0854,0.182
12.255,0.0022,-0.2607,0.0136,0.261
12.259,0.0075,-0.301,0.0478,0.305
12.266,-0.0754,-0.3244,0.0939,0.346
12.268,-0.165,-0.3311,0.1182,0.388
12.273,-0.5904,-0.4884,0.3835,0.857
12.278,-0.5198,0.0619,0.0007,0.523
12.284,0.3752,0.2961,-0.2921,0.56
12.288,0.792,0.2432,-0.1154,0.837
12.292,0.6344,0.2956,0.0179,0.7
12.313,0.4699,0.1926,0.1648,0.534
12.313,0.2724,0.0587,0.2057,0.346
12.314,0.0781,-0.0965,0.201,0.236
12.315,-0.1226,-0.1249,0.1032,0.203
12.322,-0.1386,-0.0936,0.0152,0.168
12.322,-0.1522,-0.0839,0.0398,0.178
12.327,-0.206,-0.1171,0.0904,0.254
12.34,-0.2739,-0.1599,0.1384,0.346
12.341,-0.3485,-0.1788,0.172,0.428
12.341,-0.4326,-0.1809,0.1626,0.496
12.346,-0.4497,-0.128,0.1295,0.485
12.351,-0.3881,-0.0561,0.0584,0.396
12.356,-0.2481,0.0277,-0.0004,0.25
12.361,-0.1255,0.0516,-0.0565,0.147
12.368,-0.1106,0.0277,0.0022,0.114
12.37,-0.1647,-0.0201,0.0486,0.173
12.375,-0.1682,0.0183,0.0446,0.175
12.382,-0.1619,0.0087,0.0595,0.173
12.384,-0.1388,-0.0032,0.0554,0.149
12.389,-0.0703,0.0208,0.0012,0.073
12.393,0.0982,0.0567,-0.0742,0.135
12.399,0.2278,0.0447,-0.1109,0.257
12.404,0.2112,0.0351,-0.0473,0.219
12.408,0.1588,0.028,-0.0222,0.163
12.427,0.0611,0.0089,0.0243,0.066
12.428,-0.0482,-0.0054,0.0203,0.053
12.428,-0.1692,-0.034,0.0639,0.184
12.429,-0.223,-0.0099,0.074,0.235
12.451,-0.2145,0.0332,0.0341,0.22
12.452,-0.1797,0.0571,0.0137,0.189
12.453,-0.1094,0.112,-0.0397,0.161
12.453,-0.0489,0.0951,-0.0735,0.13
12.454,-0.0601,0.0543,-0.0331,0.088
12.457,-0.1117,0.028,-0.0097,0.116
12.462,-0.1273,-0.0007,0.0062,0.127
12.468,-0.0784,0.0256,-0.0567,0.1
12.472,0.0229,0.0423,-0.1027,0.113
12.476,0.119,0.047,-0.1008,0.163
12.482,0.1359,0.0327,-0.0294,0.143
12.487,0.0572,0.0159,0.0465,0.075
12.491,0.0242,0.0374,0.0792,0.091
12.496,-0.0135,0.0565,0.1048,0.12
12.501,-0.0655,0.0398,0.0898,0.118
12.506,-0.1054,0.023,0.0178,0.109
12.51,-0.1405,0.011,0.0343,0.145
12.527,-0.1611,0.0014,0.0792,0.179
12.528,-0.1744,0.0181,0.107,0.205
12.529,-0.1684,0.0038,0.1157,0.204
12.551,-0.1091,0.0275,0.0452,0.121
12.551,-0.0526,0.0154,-0.0127,0.056
12.552,-0.0063,0.0319,-0.0914,0.097
12.552,0.0229,0.0245,-0.1338,0.138
12.552,0.0044,-0.0089,-0.0905,0.091
12.554,-0.0826,-0.0444,-0.0144,0.095
12.56,-0.1404,-0.0298,-0.0175,0.145
12.565,-0.1479,0.0298,-0.0489,0.159
12.571,-0.1341,0.0367,-0.0633,0.153
12.576,-0.1278,0.0388,-0.0347,0.138
12.579,-0.1358,0.0384,0.0009,0.141
12.586,-0.1343,0.0452,-0.0015,0.142
12.589,-0.0878,0.0496,0.0033,0.101
12.593,-0.0584,0.0492,-0.0157,0.078
12.604,-0.0199,0.0274,0.0059,0.034
12.611,0.0041,0.0272,0.0059,0.028
12.612,-0.0146,0.0269,-0.0249,0.039
12.613,-0.0285,0.0148,-0.0625,0.07
12.624,-0.0161,0.0052,-0.0335,0.038
12.625,-0.0157,-0.0068,-0.0212,0.027
12.626,-0.0225,-0.0328,-0.0448,0.06
12.632,-0.0103,-0.061,-0.0183,0.065
12.636,-0.0077,-0.0866,-0.0135,0.088
12.641,-0.0334,-0.0622,-0.0111,0.071
12.645,-0.0636,-0.0403,-0.0135,0.077
12.652,-0.0818,-0.0281,0.0339,0.093
12.656,-0.0713,-0.0041,0.0382,0.081
12.66,-0.0656,0.0077,0.052,0.084
12.668,-0.0434,0.0124,0.0491,0.067
12.671,-0.0167,0.0005,0.07,0.072
12.675,0.0217,-0.0328,0.1074,0.114
12.68,0.0526,-0.0373,0.0758,0.099
12.686,0.0691,-0.0465,0.0587,0.102
12.691,0.0974,-0.0983,-0.0176,0.14
12.694,0.1166,-0.2494,-0.0526,0.28
12.719,-0.075,-0.079,-0.0679,0.128
12.721,-0.1087,-0.0334,-0.0167,0.115
12.721,-0.1373,0.057,0.0197,0.15
12.722,-0.1635,0.0967,0.0064,0.19
12.722,-0.2156,0.0626,0.0523,0.231
12.724,-0.2886,0.126,0.1144,0.335
12.74,-0.2617,0.1035,0.1758,0.332
12.741,-0.1381,0.0385,0.0801,0.164
12.741,-0.0208,0.0168,-0.0173,0.032
12.743,0.067,0.0024,-0.114,0.132
12.749,0.0545,-0.0119,-0.1173,0.13
12.752,0.0163,-0.0095,-0.0966,0.098
12.758,-0.0452,0.0119,-0.0524,0.07
12.763,-0.0682,0.0023,0.0055,0.068
12.767,-0.084,0.0069,0.0368,0.092
12.772,-0.0547,0.0187,0.0371,0.069
12.776,-0.0518,0.0066,0.0277,0.059
12.784,-0.0418,-0.0196,0.0636,0.079
12.787,-0.0367,-0.0479,0.0256,0.066
12.791,-0.0458,-0.0618,0.0473,0.09
12.796,-0.0596,-0.0708,-0.0048,0.093
12.801,-0.0591,-0.0845,-0.0114,0.104
12.806,-0.0728,-0.0411,-0.0275,0.088
12.81,-0.0747,-0.0123,-0.0197,0.078
12.824,-0.0364,0.0044,-0.0357,0.051
12.825,-0.0507,-0.0336,-0.0019,0.061
12.825,-0.0458,-0.0286,-0.0134,0.056
12.844,-0.0693,-0.0569,0.0155,0.091
12.845,-0.0616,-0.0778,-0.0104,0.1
12.845,-0.0729,-0.1009,0.0281,0.128
12.845,-0.1124,-0.1476,0.0497,0.192
12.853,-0.2251,-0.125,0.0332,0.26
12.854,-0.4318,-0.0291,0.2232,0.487
12.859,-0.1887,-0.0289,-0.0794,0.207
12.867,0.019,-0.0406,-0.2371,0.241
12.868,0.071,-0.0308,-0.2015,0.216
12.874,0.0895,-0.0186,-0.1145,0.147
12.878,0.0676,0.0029,-0.0497,0.084
12.883,0.0221,0.0361,-0.0022,0.042
12.888,-0.0111,0.0453,0.0163,0.049
12.892,-0.0301,0.026,0.0227,0.046
12.898,-0.0418,0.014,0.0267,0.051
12.903,-0.0391,0.0092,-0.005,0.04
12.907,-0.0435,-0.0289,-0.0221,0.057
12.912,-0.0455,-0.0333,-0.0414,0.07
12.924,-0.09,-0.0211,-0.0702,0.116
12.925,-0.0938,0.0147,-0.094,0.134
12.927,-0.0999,0.0051,-0.1342,0.167
12.943,-0.0942,0.0241,-0.1244,0.158
12.943,-0.0505,0.0239,-0.1076,0.121
12.944,-0.0239,0.0096,-0.0579,0.063
12.947,-0.0211,0.0119,-0.0584,0.063
12.953,-0.0042,-0.0023,-0.0731,0.073
12.955,0.0172,0.0025,-0.0521,0.055
12.962,0.0646,0.0144,-0.0572,0.088
12.969,0.0832,0.0286,-0.0812,0.12
12.971,0.0969,0.007,-0.1025,0.141
12.976,0.0513,0.045,-0.0954,0.117
12.98,0.0321,0.0613,-0.086,0.11
12.986,0.0178,0.0561,-0.0719,0.093
12.99,-0.0344,0.0556,-0.0934,0.114
12.994,-0.0696,0.0505,-0.0932,0.127
13.011,-0.0929,0.043,-0.0575,0.117
13.012,-0.0924,0.0379,0.0062,0.1
13.012,-0.0873,0.0306,0.0669,0.114
13.034,-0.0752,0.0518,0.1059,0.14
13.034,-0.0253,0.0514,0.1212,0.134
13.035,0.0027,0.0486,0.0913,0.104
13.035,0.0353,0.0293,0.0595,0.075
13.035,0.0415,0.0149,0.0564,0.072
13.039,0.0644,-0.0303,0.0344,0.079
13.043,0.0776,-0.0348,0.015,0.086
13.05,0.0741,-0.0368,-0.0066,0.083
13.054,0.0707,-0.0389,-0.0305,0.086
13.058,0.0603,-0.0433,0.0099,0.075
13.062,0.05,-0.0429,0.0191,0.069
13.069,0.0351,-0.0117,0.0425,0.056
13.073,0.0227,-0.0258,0.0065,0.035
13.078,0.0033,-0.0422,-0.0127,0.044
13.082,0.0078,-0.0276,-0.0767,0.082
13.087,-0.0114,-0.025,-0.0666,0.072
13.092,0.01,-0.0651,-0.0757,0.1
13.096,0.0906,-0.1594,-0.0656,0.195
13.103,-0.0948,-0.0157,-0.1388,0.169
13.107,0.0012,-0.018,-0.0643,0.067
13.112,0.0442,-0.0582,-0.0165,0.075
13.128,0.023,-0.0767,-0.0284,0.085
13.129,-0.0073,0.0046,-0.0093,0.013
13.129,0.0146,-0.0049,-0.0094,0.018
13.147,0.0411,-0.0452,0.0118,0.062
13.148,0.0864,-0.0994,0.1253,0.182
13.148,0.0604,-0.0796,0.2071,0.23
13.148,0.0463,-0.022,0.0796,0.095
13.152,0.075,-0.029,-0.0065,0.081
13.155,0.0726,0.0092,-0.0111,0.074
13.16,0.0655,0.0447,0.0459,0.092
13.164,0.0559,0.0443,0.0075,0.072
13.17,0.0703,-0.1056,0.0193,0.128
13.175,0.1589,-0.2471,0.0906,0.307
13.18,-0.0156,-0.1361,0.081,0.159
13.186,-0.0486,0.012,0.0644,0.082
13.188,-0.0222,0.0616,0.1166,0.134
13.194,0.011,0.0373,0.1376,0.143
13.217,-0.0438,0.0701,0.1799,0.198
13.217,-0.0722,0.131,0.146,0.209
13.217,-0.1103,0.201,0.1503,0.274
13.218,-0.1627,0.2514,0.0856,0.311
13.218,-0.1511,0.3347,0.0687,0.374
13.222,-0.0905,0.3105,0.0282,0.325
13.229,0.012,0.1537,0.04,0.159
13.233,0.0614,0.0694,0.0824,0.124
13.239,0.1368,-0.0142,0.0889,0.164
13.243,-0.0627,0.0191,0.1166,0.134
13.247,-0.0395,-0.0761,0.1371,0.162
13.252,-0.1324,0.0052,0.1028,0.168
13.256,-0.0215,0.0098,0.0997,0.103
13.26,0.1065,0.005,0.0424,0.115
13.266,0.1971,-0.0306,0.0401,0.203
13.27,0.2013,-0.1016,0.0474,0.23
13.275,0.201,-0.1221,0.0428,0.239
13.28,0.1677,-0.1116,0.0121,0.202
13.285,0.1063,-0.0323,0.034,0.116
13.29,0.0503,0.0391,0.0082,0.064
13.295,0.0065,0.0862,-0.0199,0.089
13.304,-0.0205,0.1139,-0.0193,0.117
13.305,-0.1376,0.1391,0.0025,0.196
13.309,-0.1637,0.0716,0.0048,0.179
13.316,-0.0972,0.0259,-0.0546,0.114
13.319,-0.0668,-0.043,0.0002,0.079
13.324,-0.0151,-0.1067,0.0308,0.112
13.329,-0.0136,-0.1484,0.0539,0.159
13.334,0.0285,-0.1567,0.0628,0.171
13.339,-0.0102,-0.1435,0.055,0.154
13.343,-0.0866,-0.0639,0.071,0.129
13.349,-0.0791,-0.1179,0.0822,0.164
13.354,-0.0549,-0.1478,-0.0135,0.158
13.358,-0.1707,0.01,-0.0325,0.174
13.363,-0.1577,-0.0612,-0.0063,0.169
13.369,-0.166,-0.101,-0.0539,0.202
13.373,-0.2333,-0.0788,-0.1295,0.278
13.378,-0.3262,0.0191,-0.1166,0.347
13.386,-0.3071,0.057,-0.1704,0.356
13.39,-0.2764,0.085,-0.1052,0.308
13.392,-0.2106,0.063,-0.0335,0.222
13.397,-0.1291,0.0625,0.0019,0.143
13.403,-0.0247,0.0194,0.0654,0.073
13.407,0.0387,-0.0163,0.1119,0.12
13.412,0.0565,-0.0043,0.0893,0.106
13.427,0.1312,-0.0516,0.0574,0.152
13.427,0.2056,-0.1579,0.0305,0.261
13.428,0.1992,-0.2325,0.0086,0.306
13.448,0.2029,-0.2377,-0.0582,0.318
13.448,0.1382,-0.1764,-0.1079,0.249
13.448,0.0528,-0.0801,-0.1646,0.191
13.449,-0.0247,0.0108,-0.1854,0.187
13.45,-0.1016,0.0416,-0.1397,0.178
13.456,-0.1161,0.0413,0.0076,0.123
13.461,-0.0973,0.0433,0.1799,0.209
13.465,-0.0075,0.0454,0.2085,0.214
13.47,0.0647,0.0521,0.104,0.133
13.474,-0.0487,0.0897,0.019,0.104
13.479,-0.0191,0.0819,0.0939,0.126
13.486,0.0196,0.01,0.095,0.098
13.489,-0.0676,0.0384,0.004,0.078
13.494,-0.1163,0.1496,-0.1219,0.225
13.509,-0.0773,0.0867,-0.1119,0.161
13.51,-0.0266,0.067,-0.0212,0.075
13.51,-0.0524,0.0569,-0.0307,0.083
13.513,-0.059,0.047,-0.0829,0.112
13.525,0.1053,0.068,0.0053,0.125
13.525,0.2516,0.0579,0.0879,0.273
13.528,0.3636,0.0504,0.1036,0.381
13.534,0.4272,0.0048,0.0932,0.437
13.537,0.3245,-0.0166,0.0237,0.326
13.545,0.294,-0.0616,0.0639,0.307
13.548,0.2281,-0.0587,0.0944,0.254
13.554,0.1747,-0.044,0.0701,0.193
13.559,0.015,-0.0532,0.0177,0.058
13.565,0.0416,0.0279,0.1035,0.115
13.568,-0.0558,0.0679,0.0225,0.091
13.574,0.0586,0.0483,0.0537,0.093
13.578,-0.082,0.036,-0.0315,0.095
13.586,-0.0339,0.0095,0.0242,0.043
13.589,0.0372,-0.0143,0.1032,0.111
13.591,0.0436,-0.0166,-0.0843,0.096
13.595,0.1211,-0.0569,-0.0968,0.165
13.603,0.0938,-0.0209,0.0165,0.097
13.607,0.1069,-0.0065,0.1527,0.186
13.61,0.1528,0.0338,0.0316,0.16
13.614,0.298,0.0073,0.054,0.303
13.626,0.4231,-0.045,0.0859,0.434
13.627,0.3385,-0.0566,0.0367,0.345
13.647,-0.0483,0.1573,-0.0097,0.165
13.648,-0.2212,0.2746,-0.1295,0.376
13.648,-0.1394,0.2105,0.0177,0.253
13.649,-0.0412,0.0164,0.2446,0.249
13.656,-0.1688,-0.1405,0.2348,0.321
13.656,-0.4354,0.1263,0.0517,0.456
13.659,-0.7921,0.6256,0.0249,1.01
13.664,-0.3375,0.5387,0.0345,0.637
13.671,-0.2356,0.3014,0.0275,0.384
13.673,0.4061,-0.373,0.0992,0.56
13.679,0.277,-0.5901,-0.0176,0.652
13.684,-0.219,-0.4294,-0.1868,0.517
13.689,-0.1413,-0.3191,-0.0911,0.361
13.694,-0.0615,-0.2327,0.1549,0.286
13.698,-0.0918,-0.1967,0.2168,0.307
13.712,-0.0693,-0.1512,0.1715,0.239
13.712,-0.1683,-0.0078,0.086,0.189
13.713,-0.2146,0.1641,-0.035,0.272
13.73,-0.0962,0.3214,-0.1606,0.372
13.731,-0.0285,0.4594,-0.2813,0.539
13.732,0.4444,0.2843,-0.3852,0.653
13.733,0.9542,-0.2229,-0.3356,1.036
13.737,0.2249,0.0328,-0.2863,0.366
13.741,0.184,0.1138,-0.0827,0.232
13.746,0.3647,0.0682,0.0557,0.375
13.75,-0.009,0.0846,-0.1236,0.15
13.757,-0.3419,0.1178,-0.1566,0.394
13.761,-0.5987,0.1176,-0.19,0.639
13.766,-0.255,-0.2125,-0.1374,0.359
13.77,-0.039,-0.5111,-0.1513,0.534
13.774,-0.1474,-0.1618,0.047,0.224
13.779,-0.1135,0.0869,0.1726,0.224
13.785,0.0366,0.1465,0.0946,0.178
13.79,-0.0455,0.1558,-0.0664,0.175
13.794,-0.1612,0.1364,0.0048,0.211
13.8,-0.2841,0.117,0.0971,0.322
13.814,-0.2709,0.0284,0.1603,0.316
13.814,-0.1648,-0.0863,0.0656,0.197
13.815,-0.0993,-0.1555,-0.0886,0.205
13.832,-0.2678,-0.0813,-0.0372,0.282
13.833,-0.1729,-0.2126,-0.0265,0.275
13.834,-0.1258,-0.2315,0.0319,0.265
13.836,0.0315,-0.2623,0.028,0.266
13.839,0.1269,-0.1951,0.048,0.238
13.843,0.1817,-0.1352,0.0418,0.23
13.847,0.1793,-0.0443,0.0547,0.193
13.857,0.1172,0.0321,0.0244,0.124
13.857,-0.1314,0.1946,0.0969,0.254
13.863,-0.1411,0.1799,0.0903,0.246
13.868,0.0547,-0.0234,0.0166,0.062
13.873,-0.1055,-0.033,0.0289,0.114
13.877,-0.5165,0.1797,0.2156,0.588
13.882,-0.4388,0.354,0.1319,0.579
13.888,-0.0086,-0.2127,0.1889,0.285
13.892,0.3081,-0.6497,-0.0629,0.722
13.896,0.3081,-0.5533,-0.1271,0.646
13.918,0.2946,-0.2826,-0.0929,0.419
13.919,0.2525,-0.1294,0.0129,0.284
13.92,0.2441,-0.06,-0.104,0.272
13.921,0.2766,-0.029,-0.2732,0.39
13.922,-0.0059,0.1741,-0.1744,0.246
13.925,-0.1809,0.2885,-0.0117,0.341
13.93,-0.1626,0.214,0.179,0.323
13.935,-0.3405,0.1898,0.2116,0.444
13.94,-0.2674,0.0749,0.1629,0.322
13.945,-0.0844,-0.0304,0.0594,0.108
13.951,-0.2911,0.0533,-0.0056,0.296
13.954,-0.8473,0.5265,-0.1017,1.003
13.959,-1.028,0.9131,-0.117,1.38
13.965,0.1842,0.1954,0.154,0.31
13.969,0.7131,-0.4165,0.1483,0.839
13.973,0.3596,-0.5593,0.0404,0.666
13.98,-0.0137,-0.5466,0.2284,0.593
13.989,-0.2639,-0.3427,0.4203,0.603
13.991,-0.0885,-0.2227,0.2109,0.319
13.995,0.0986,-0.1078,-0.0596,0.158
13.999,0.1086,-0.0097,-0.2028,0.23
14.004,0.0614,0.0357,-0.0952,0.119
14.009,-0.0191,0.0476,0.0885,0.102
14.012,-0.1254,0.0738,0.1786,0.23
14.027,-0.0573,-0.0099,0.493,0.496
14.027,-0.2584,0.2627,0.0157,0.369
14.028,-0.3727,0.3819,-0.0331,0.535
14.032,0.0517,-0.0799,-0.3391,0.352
14.046,0.1875,-0.4048,0.0434,0.448
14.047,0.0902,-0.5454,0.1552,0.574
14.047,-0.0368,-0.4541,-0.015,0.456
14.055,0.1592,-0.5039,-0.1225,0.542
14.055,0.3674,-0.5847,-0.1076,0.699
14.06,0.7628,-0.7396,-0.0829,1.066
14.066,0.6724,-0.7773,-0.1701,1.042
14.071,0.0134,-0.2869,-0.25,0.381
14.076,-0.3093,0.1479,-0.3015,0.457
14.079,-0.0994,0.3218,-0.2837,0.44
14.086,-0.0605,0.2493,-0.2136,0.334
14.09,-7.1879,4.6605,-1.6359,8.721
14.094,-1.2509,4.6269,2.1652,5.259
14.101,2.1053,1.3363,1.9998,3.196
14.104,0.2315,-0.0438,0.2377,0.335
14.109,0.0406,-1.1236,-1.189,1.636
14.114,0.9763,-1.9511,-1.5076,2.652
14.129,0.9833,-2.0105,-0.755,2.362
14.13,0.4659,-1.5776,-0.0271,1.645
14.13,0.0846,-1.0379,0.2571,1.073
14.148,-0.1815,-0.573,0.2392,0.647
14.149,-0.4055,-0.1709,0.1073,0.453
14.149,-0.2772,-0.0465,0.1406,0.314
14.15,-0.1092,-0.1277,0.2645,0.313
14.156,-0.1109,-0.0869,0.2279,0.268
14.158,-0.0883,0.0949,-0.0196,0.131
14.162,0.0634,0.2143,-0.1764,0.285
14.169,0.1316,0.2404,-0.2923,0.401
14.172,0.1,0.1111,-0.2452,0.287
14.176,-0.0505,0.0153,-0.2817,0.287
14.183,-0.2653,0.0893,-0.4018,0.49
14.188,-0.3634,0.2422,-0.3905,0.586
14.193,-0.2877,0.1989,-0.1379,0.376
14.199,-0.2674,-0.002,0.1092,0.289
14.207,-0.2638,0.0292,0.238,0.357
14.213,-0.1125,0.0389,-0.1765,0.213
14.214,0.2605,-0.0685,-0.3273,0.424
14.216,0.397,-0.1399,-0.1093,0.435
14.229,0.3189,-0.1038,0.2759,0.434
14.23,0.1983,-0.1036,0.4052,0.463
14.231,0.1642,-0.101,0.3675,0.415
14.241,0.1637,-0.0746,0.2249,0.288
14.243,0.1752,-0.053,0.0565,0.192
14.245,0.1557,0.033,0.027,0.161
14.251,0.1289,0.0879,0.0693,0.171
14.255,0.1404,0.1189,0.1186,0.219
14.261,0.1041,0.1116,0.1346,0.203
14.265,0.0748,0.097,0.0409,0.129
14.27,0.0216,0.0825,-0.0714,0.111
14.274,-0.0341,0.0847,-0.0952,0.132
14.279,-0.1042,0.0726,-0.0281,0.13
14.285,-0.1337,0.0486,0.0437,0.149
14.289,-0.0726,0.0389,0.0748,0.111
14.293,-0.0166,0.0388,0.0989,0.108
14.298,0.0058,0.0196,0.135,0.137
14.305,0.033,0.0266,0.1595,0.165
14.308,0.0434,0.0576,0.1674,0.182
14.312,0.0561,0.0622,0.1229,0.149
14.327,0.0162,0.0811,0.019,0.085
14.327,-0.0286,-0.0028,-0.135,0.138
14.327,-0.1333,-0.1295,-0.3366,0.385
14.333,-0.236,-0.28,-0.5072,0.626
14.342,-0.2339,-0.3824,-0.5419,0.703
14.343,-0.1224,-0.3747,-0.4578,0.604
14.346,0.0223,-0.2881,-0.25,0.382
14.353,0.2266,-0.1252,0.0744,0.269
14.357,0.3594,0.0782,0.3435,0.503
14.362,0.3873,0.2191,0.3502,0.566
14.367,0.3058,0.2929,0.1904,0.464
14.371,0.2102,0.3235,0.0289,0.387
14.376,0.1003,0.2919,-0.0916,0.322
14.381,0.0382,0.2747,-0.162,0.321
14.385,0.0262,0.1954,-0.1849,0.27
14.39,0.0595,-0.0319,-0.1769,0.189
14.394,0.031,-0.235,-0.1956,0.307
14.399,-0.0071,0.1596,-0.157,0.224
14.41,0.0165,0.3099,-0.0533,0.315
14.41,-0.0559,0.3238,0.0983,0.343
14.415,0.01,0.2063,0.1397,0.249
14.425,0.1407,-0.8503,-0.8349,1.2
14.425,0.0607,-0.6557,-0.4159,0.779
14.429,-0.0976,-0.3371,0.1103,0.368
14.436,-0.251,-0.0332,0.2707,0.371
14.438,-0.2208,0.091,0.2615,0.354
14.444,-0.1555,0.1673,0.0848,0.244
14.449,-0.0622,0.2173,-0.0154,0.227
14.453,0.0115,0.2409,-0.1057,0.263
14.459,0.0587,0.1832,-0.1432,0.24
14.464,0.0677,0.1041,-0.0971,0.158
14.468,0.0195,0.0346,-0.0058,0.04
14.474,-0.0117,-0.0156,0.0351,0.04
14.479,-0.0595,-0.0682,0.0425,0.1
14.482,-0.0616,-0.0681,0.0022,0.092
14.489,-0.047,-0.0705,-0.0213,0.087
14.491,-0.0302,-0.0608,-0.0423,0.08
14.496,-0.0133,-0.0369,-0.0084,0.04
14.51,-0.0179,-0.013,-0.015,0.027
14.51,-0.0177,-0.0226,-0.0097,0.03
14.513,-0.0079,-0.0345,-0.0092,0.037
14.516,-0.0362,-0.0417,-0.0039,0.055
14.527,-0.0071,-0.0441,-0.0298,0.054
14.528,-0.0163,-0.013,-0.039,0.044
14.531,-0.0159,0.0037,-0.0505,0.053
14.536,-0.018,-0.0035,-0.0478,0.051
14.54,-0.0129,0.0084,-0.0237,0.028
14.546,0.0137,-0.0155,0.0146,0.025
14.55,0.0164,-0.0418,0.0361,0.058
14.555,-0.0047,-0.0226,0.0264,0.035
14.56,-0.0018,0.0085,-0.0073,0.011
14.564,-0.0134,0.0372,-0.0123,0.041
14.573,-0.0155,0.0491,-0.0316,0.06
14.574,0.0135,0.0012,-0.0271,0.03
14.579,0.0043,-0.0346,-0.0178,0.039
14.585,0,-0.0322,0.0011,0.032
14.59,-0.0138,-0.0441,0.0389,0.06
14.594,-0.0323,-0.0464,0.0265,0.062
14.6,-0.0436,-0.0201,0.0214,0.053
14.617,-0.0166,-0.0272,0.0164,0.036
14.618,-0.0183,0.0111,0.0377,0.043
14.619,-0.0034,0.0134,0.016,0.021
14.62,0.0067,0.0206,0.004,0.022
14.624,0.0407,-0.0106,0.0064,0.043
14.627,-0.2025,0.2619,-0.0486,0.335
14.633,-0.4035,0.5531,-0.1275,0.696
14.637,-0.1229,0.3183,-0.0179,0.342
14.642,0.1215,-0.0572,0.113,0.175
14.647,0.113,-0.2339,0.0979,0.278
14.654,0.0404,-0.1881,-0.0151,0.193
14.658,0.0038,-0.0851,-0.0991,0.131
14.662,-0.0185,-0.0155,-0.1271,0.129
14.666,-0.0026,-0.0485,-0.1191,0.129
14.672,0.0511,-0.1121,-0.0471,0.132
14.676,0.1189,-0.1895,-0.0351,0.226
14.68,0.0938,-0.195,-0.0446,0.221
14.689,0.1025,-0.1625,-0.0778,0.207
14.692,0.2133,-0.1991,-0.0892,0.305
14.696,0.2169,-0.1785,-0.0886,0.295
14.7,0.2066,-0.1699,-0.0453,0.271
14.722,0.1896,-0.1234,0.0188,0.227
14.722,0.1492,-0.1105,0.016,0.186
14.723,0.0619,-0.0503,-0.0461,0.092
14.723,0.0086,0.0758,-0.0246,0.08
14.732,-0.0636,0.1701,-0.034,0.185
14.732,-0.0215,0.1449,0.0016,0.146
14.734,-0.056,0.1199,0.0037,0.132
14.74,0.0142,0.0857,0.0341,0.093
14.744,0.1194,0.0304,0.0572,0.136
14.748,0.2404,0.08,0.2273,0.34
14.755,0.2223,0.2454,-0.0024,0.331
14.759,-0.1638,0.2457,-0.1609,0.336
14.764,-0.179,0.1772,-0.2517,0.356
14.768,-0.13,-0.0497,-0.0619,0.152
14.774,-0.309,-0.0802,0.1,0.335
14.778,-0.3136,-0.0677,0.054,0.325
14.783,-0.2237,0.0018,-0.0771,0.237
14.79,-0.0852,0.0563,-0.1405,0.174
14.793,0.0378,0.0796,-0.1368,0.163
14.797,0.1123,0.0885,-0.0857,0.167
14.823,0.1363,0.0498,-0.0446,0.152
14.824,0.1247,0.0281,-0.0752,0.148
14.824,0.1275,-0.0196,-0.0794,0.151
14.824,0.0782,-0.0123,-0.0528,0.095
14.825,0.0483,-0.0192,0.0375,0.064
14.827,0.0472,-0.0238,0.113,0.125
14.831,0.0412,-0.0425,0.1381,0.15
14.843,0.0663,-0.0611,0.1348,0.162
14.844,0.0936,-0.0511,0.0793,0.133
14.846,0.1445,-0.0673,0.0623,0.171
14.851,0.0648,-0.0336,0.0006,0.073
14.858,-0.0046,-0.0215,-0.0366,0.043
14.861,-0.033,-0.0498,-0.0425,0.073
14.866,-0.1204,-0.0495,-0.0766,0.151
14.873,-0.1074,0.003,0.006,0.108
14.875,-0.218,0.1642,-0.1065,0.293
14.879,-0.4522,0.6421,-0.2229,0.816
14.887,0.2205,0.0981,0.027,0.243
14.889,0.5077,-0.4397,0.2265,0.709
14.894,-0.0094,-0.2529,0.0603,0.26
14.899,-0.2322,0.039,0.0278,0.237
14.904,-0.0373,0.0676,0.0431,0.088
14.91,0.1929,-0.1763,0.1758,0.315
14.913,0.0769,-0.2407,0.158,0.298
14.937,0.0786,-0.2763,0.1092,0.307
14.939,0.1427,-0.3191,0.0674,0.356
14.94,0.059,-0.228,-0.0101,0.236
14.941,0.0328,-0.0844,-0.1494,0.175
14.941,0.0447,-0.0055,-0.1883,0.194
14.943,0.0421,0.0326,-0.2129,0.219
14.948,-0.0441,0.097,-0.1419,0.177
14.956,-0.2261,0.1279,0.0099,0.26
14.957,-0.3605,0.2878,-0.0658,0.466
14.962,-0.2753,0.1106,0.133,0.325
14.967,0.3305,-0.0281,-0.4161,0.532
14.973,0.1663,0.1798,-0.83,0.865
14.977,-0.1386,0.2249,-0.5862,0.643
14.982,-0.3694,0.2605,-0.2409,0.512
14.988,-0.4329,0.1264,0.0248,0.452
14.995,-0.5084,0.0451,0.0368,0.512
14.996,-0.4788,-0.1126,0.0321,0.493
15.001,-0.4682,-0.1745,-0.1715,0.528
15.008,-0.293,-0.1384,-0.3104,0.449
15.01,0.0018,-0.3341,-0.1837,0.381
15.015,0.0364,-0.4531,-0.0757,0.461
15.031,0.0934,-0.5625,0.1112,0.581
15.031,-0.0783,-0.3754,0.1428,0.409
15.032,-0.1948,-0.1934,0.3942,0.48
15.049,-0.2328,-0.0378,0.6543,0.695
15.049,-0.422,0.3351,0.2616,0.599
15.05,-0.2129,0.435,-0.2208,0.532
15.05,0.17,0.2863,-0.5133,0.612
15.058,0.3211,0.1688,-0.5474,0.657
15.06,0.2863,0.1829,-0.6318,0.717
15.065,0.2614,0.197,-0.6183,0.7
15.069,0.2179,0.2398,-0.5572,0.645
15.075,0.1366,0.1964,-0.506,0.56
15.078,0.2155,0.0408,-0.486,0.533
15.083,0.2158,-0.0143,-0.6115,0.649
15.088,0.1662,-0.0693,-0.5647,0.593
15.093,0.0262,-0.0956,-0.2887,0.305
15.098,-0.2448,-0.1242,0.1921,0.335
15.119,-0.5085,-0.1551,0.6264,0.822
15.12,-0.648,-0.2099,1.0813,1.278
15.121,-0.6087,-0.2836,1.3588,1.516
15.122,-0.4407,-0.2474,1.2565,1.354
15.123,-0.087,-0.1874,0.8327,0.858
15.126,0.1589,-0.1395,0.3458,0.405
15.132,0.2445,-0.0821,-0.1065,0.279
15.138,0.2539,0.0278,-0.5128,0.573
15.141,0.2251,0.1949,-0.8589,0.909
15.146,0.1844,0.271,-1.0065,1.059
15.151,0.0647,0.3065,-0.8631,0.918
15.156,-0.079,0.3084,-0.5582,0.643
15.161,-0.1654,0.1504,-0.1063,0.248
15.166,-0.1968,-0.0194,0.311,0.369
15.172,-0.061,-0.1579,0.5366,0.563
15.175,0.1823,-0.27,0.5283,0.621
15.18,0.416,-0.339,0.2962,0.613
15.185,0.5353,-0.3602,0.0488,0.647
15.192,0.4975,-0.2858,-0.1046,0.583
15.194,0.3717,-0.1613,-0.2193,0.461
15.199,0.1361,0.0705,-0.4512,0.477
15.225,-0.0948,0.3618,-0.5374,0.655
15.226,-0.1733,0.4927,-0.4997,0.723
15.227,0.0011,0.3296,-0.1709,0.371
15.227,-0.0086,0.2216,0.0329,0.224
15.227,-0.1904,0.2046,0.1285,0.308
15.231,-0.2341,0.2737,0.2999,0.469
15.233,-0.1235,0.3189,0.4805,0.59
15.242,0.0529,0.3186,0.4582,0.561
15.244,0.3407,0.2705,0.1499,0.46
15.249,0.537,0.2391,-0.1857,0.616
15.253,0.4843,0.2317,-0.3316,0.631
15.259,0.4074,0.1502,-0.3627,0.566
15.262,0.247,0.2505,-0.2557,0.435
15.268,0.5593,-0.0099,0.3202,0.645
15.274,0.5207,-0.4632,1.4315,1.592
15.277,-0.0411,-0.5264,1.6498,1.732
15.282,-0.5132,-0.3604,1.088,1.256
15.291,-0.6593,-0.1016,0.2928,0.729
15.294,-0.6209,0.0684,-0.4434,0.766
15.298,-0.6419,0.1737,-0.8845,1.107
15.303,-0.6389,0.2286,-0.938,1.158
15.326,-0.5808,0.2548,-0.6979,0.943
15.327,-0.4224,0.1615,-0.3077,0.547
15.327,-0.3042,-0.0344,0.0626,0.312
15.327,-0.1998,-0.2779,0.289,0.448
15.328,-0.2214,-0.4208,0.3788,0.608
15.33,-0.1776,-0.4966,0.3705,0.645
15.336,-0.0715,-0.46,0.1877,0.502
15.341,0.1468,-0.4331,-0.2121,0.504
15.345,0.3386,-0.4731,-0.5727,0.816
15.349,0.3085,-0.4844,-0.7989,0.984
15.355,0.0782,-0.3069,-0.7813,0.843
15.36,-0.0873,-0.0962,-0.5349,0.55
15.364,-0.1165,0.0666,-0.1577,0.207
15.369,-0.0884,0.2315,0.1688,0.3
15.375,0.0851,0.3054,0.3467,0.47
15.378,0.139,0.3649,0.2857,0.484
15.383,0.1856,0.3645,0.1059,0.422
15.393,0.2395,0.2111,-0.0064,0.319
15.394,0.4036,-0.0114,-0.0417,0.406
15.398,0.4798,-0.3078,0.069,0.574
15.422,0.3036,-0.47,0.0934,0.567
15.423,0.095,-0.4983,0.1416,0.527
15.423,-0.2011,-0.3448,0.1513,0.427
15.424,-0.3581,-0.1964,0.1679,0.442
15.427,-0.4077,-0.0648,0.1316,0.433
15.428,-0.3643,0.1718,0.1068,0.417
15.432,0.0317,0.2624,-0.0257,0.266
15.441,0.2592,0.2024,0.0573,0.334
15.443,0.3123,0.0133,0.2119,0.378
15.447,0.2438,-0.0918,0.206,0.332
15.451,0.1662,-0.1921,0.176,0.309
15.457,0.1079,-0.1703,0.0694,0.213
15.462,0.0686,-0.0912,-0.1113,0.159
15.466,0.0267,0.0284,-0.1462,0.151
15.475,-0.073,0.2316,-0.1143,0.268
15.477,-0.219,0.4059,-0.0373,0.463
15.481,-0.2558,0.4797,0.1279,0.558
15.485,-0.4252,0.6347,0.1875,0.787
15.491,-0.4309,0.6916,0.2491,0.852
15.495,-0.4523,0.6816,0.3412,0.886
15.502,-0.4917,0.5499,0.4375,0.858
15.517,-0.3718,0.3897,0.5309,0.756
15.517,-0.1189,0.1174,0.4661,0.495
15.518,0.3871,-0.3934,0.2961,0.626
15.519,1.1286,-0.9588,0.0312,1.481
15.528,1.2845,-1.1795,-0.2084,1.756
15.529,1.3139,-1.1611,0.1051,1.757
15.534,1.2594,-0.8489,0.0383,1.519
15.541,1.0461,-0.4512,-0.5198,1.252
15.55,1.1777,-0.3266,-0.6624,1.39
15.55,1.1806,-0.1424,-0.1619,1.2
15.555,0.8017,0.271,0.5958,1.035
15.558,1.3097,0.3779,0.6364,1.504
15.564,-21.6315,-3.2129,-11.1502,24.547
15.567,-9.6029,2.1406,2.9418,10.269
15.573,-3.1902,4.057,7.4866,9.093
15.577,-0.3416,3.3305,3.2637,4.676
15.582,2.5945,2.0385,1.8658,3.791
15.587,3.4153,0.595,-0.4951,3.502
15.593,2.5562,-0.5194,-1.8714,3.21
15.597,1.5353,-0.9205,-1.4556,2.307
15.602,0.7508,-1.0032,-0.7672,1.469
15.607,0.0583,-0.9018,-0.3811,0.981
15.615,0.7157,-1.0179,-0.9728,1.579
15.617,2.4991,-0.9328,-2.6715,3.775
15.629,6.6555,-2.8651,-6.1214,9.486
15.633,8.9216,-7.4978,-1.2275,11.718
15.639,5.6555,-5.3826,-0.0796,7.808
15.641,4.2066,-2.5318,0.221,4.915
15.651,2.9255,0.7644,0.3757,3.047
15.654,1.637,2.3281,0.5873,2.906
15.655,0.0134,3.4068,1.4363,3.697
15.661,-0.8551,3.5998,1.7625,4.098
15.664,-1.5653,3.4435,1.6416,4.123
15.665,-2.5623,3.572,1.8485,4.769
15.669,-2.4509,2.0015,1.3362,3.435
15.675,-2.7641,0.8969,1.0466,3.089
15.68,-2.6184,0.2218,0.5323,2.681
15.685,-2.0549,-0.3853,-0.0007,2.091
15.69,-1.6251,-0.8674,-0.3138,1.869
15.694,-1.6007,-0.9546,-0.2392,1.879
15.698,-1.3727,-0.994,-0.2927,1.72
15.707,-1.3792,-1.0692,0.328,1.776
15.711,-1.4197,-0.9242,1.2575,2.11
15.713,-1.3467,-0.4542,1.9803,2.438
15.717,-1.1862,0.0222,1.7428,2.108
15.728,-0.9215,0.3735,0.8031,1.278
15.73,-0.5359,0.6023,-0.0142,0.806
15.755,-0.3349,0.7425,-0.3344,0.88
15.755,-0.1147,0.7774,-0.4145,0.888
15.756,0.1531,0.7288,-0.4477,0.869
15.756,0.5635,0.587,-0.4499,0.93
15.757,0.4033,0.3976,-0.0028,0.566
15.757,0.4154,0.2539,-0.0966,0.496
15.762,0.4986,0.0961,-0.3213,0.601
15.766,0.6004,-0.1261,-0.4024,0.734
15.772,0.7761,-0.3814,-0.4597,0.979
15.776,0.7508,-0.0676,0.3217,0.82
15.781,0.8815,0.2697,1.0859,1.424
15.785,1.7194,-0.4688,-0.3813,1.823
15.791,2.0234,-0.8192,-1.0811,2.436
15.796,1.631,-0.8228,-1.1141,2.14
15.8,1.0524,-0.6733,-0.95,1.57
15.819,0.6458,-0.5241,-0.6366,1.047
15.82,0.1501,-0.2699,-0.3478,0.465
15.821,-0.2324,-0.0185,-0.1524,0.279
15.822,-0.5259,0.1346,-0.0927,0.551
15.845,-0.7304,0.1751,-0.2286,0.785
15.846,-0.8775,0.414,-0.3285,1.024
15.847,-0.7097,0.4614,-0.4452,0.956
15.847,-0.1548,-0.2296,-0.3454,0.443
15.848,-0.6504,-0.1836,-0.0115,0.676
15.849,-1.0714,0.2542,0.6277,1.267
15.856,-0.9721,0.247,0.9186,1.36
15.861,-0.978,0.0748,0.9287,1.351
15.865,-1.0431,0.0079,0.8942,1.374
15.869,-0.9454,-0.1092,0.7643,1.221
15.873,-0.7522,-0.2428,0.5079,0.94
15.879,-0.5447,-0.1994,0.3185,0.662
15.883,-0.4158,-0.0796,0.2389,0.486
15.889,-0.3367,-0.0962,0.3315,0.482
15.892,-0.2305,-0.1893,0.3591,0.467
15.896,-0.1667,-0.2177,0.2354,0.361
15.902,-0.0216,-0.0788,0.0425,0.092
15.908,0.1587,-0.0022,-0.0447,0.165
15.913,0.2596,-0.0452,-0.0762,0.274
15.917,0.2048,0.0265,-0.0859,0.224
15.944,0.2118,0.0552,-0.0792,0.233
15.944,0.3494,0.1628,-0.2065,0.437
15.945,0.4788,0.3276,-0.3932,0.701
15.945,0.5045,0.43,-0.4359,0.793
15.946,0.2047,0.7284,-0.0982,0.763
15.949,-0.0742,0.7969,0.2181,0.83
15.95,-0.1623,0.6646,0.4289,0.807
15.961,-0.2439,0.6234,0.4935,0.832
15.962,-0.1422,0.4938,0.4242,0.666
15.965,0.0112,0.2497,0.2834,0.378
15.97,0.1618,-0.1685,0.224,0.324
15.978,0.0114,-0.1058,-0.0673,0.126
15.979,0.0119,-0.2129,-0.1217,0.246
15.985,-0.2255,-0.3558,0.0462,0.424
15.989,-0.2527,-0.7375,0.1487,0.794
15.995,-0.2667,-0.5118,-0.0815,0.583
15.999,-0.0134,-0.4417,-0.0887,0.451
16.005,0.1035,-0.4219,-0.026,0.435
16.009,0.225,-0.242,-0.1614,0.368
16.013,0.3697,-0.0122,-0.2368,0.439
16.018,0.478,0.0764,-0.2884,0.563
16.043,0.4306,0.0239,-0.2157,0.482
16.044,0.3738,0.0193,0.0095,0.374
16.044,0.4031,-0.0069,-0.0763,0.41
16.044,0.3749,-0.0258,-0.1452,0.403
16.045,0.2704,0.0462,-0.2022,0.341
16.048,0.1351,0.1299,-0.2281,0.295
16.052,0.0046,0.3857,-0.266,0.469
16.059,0.0143,0.6029,-0.2893,0.669
16.062,0.1492,0.7244,-0.4413,0.861
16.067,0.3349,0.6928,-0.6219,0.989
16.073,0.4231,0.5611,-0.5994,0.924
16.078,0.4626,0.279,-0.4127,0.68
16.082,0.404,0.0022,-0.1739,0.44
16.086,0.298,-0.2385,0.0119,0.382
16.092,0.1689,-0.4407,0.1284,0.489
16.096,-0.0237,-0.5567,0.1658,0.581
16.102,-0.1649,-0.5817,0.0908,0.611
16.118,-0.3289,-0.4634,-0.0034,0.568
16.119,-0.449,-0.2425,-0.126,0.526
16.119,-0.5563,0.0402,-0.1835,0.587
16.138,-0.5915,0.1719,-0.0299,0.617
16.138,-0.6812,0.1217,0.3871,0.793
16.139,-0.8346,0.0499,0.7805,1.144
16.139,-0.9064,-0.0074,0.9946,1.346
16.141,-0.8922,0.007,0.9507,1.304
16.144,-0.6873,0.0215,0.7295,1.002
16.149,-0.4233,0.0289,0.4548,0.622
16.154,-0.2008,-0.052,0.2435,0.32
16.16,-0.117,-0.1924,0.1982,0.3
16.164,-0.1306,-0.4187,0.2209,0.491
16.168,-0.1645,-0.4392,0.1975,0.509
16.174,-0.1594,-0.4096,0.0811,0.447
16.178,-0.1751,-0.2151,-0.032,0.279
16.183,-0.1355,-0.076,-0.082,0.176
16.19,-0.0859,-0.0232,-0.1379,0.164
16.194,-0.0311,-0.0829,-0.2289,0.245
16.198,-0.05,0.0128,-0.2955,0.3
16.202,-0.0207,0.0103,-0.2375,0.239
16.209,-0.0413,0.0867,-0.2177,0.238
16.213,-0.0143,0.1439,-0.2289,0.271
16.217,0.0027,0.2535,-0.2589,0.362
16.242,0.062,0.2866,-0.3005,0.42
16.242,0.1348,0.303,-0.3729,0.499
16.243,0.2211,0.2788,-0.4376,0.564
16.243,0.2899,0.2402,-0.4302,0.572
16.244,0.3034,0.1922,-0.3793,0.522
16.247,0.3575,0.027,-0.268,0.448
16.251,0.3332,-0.2599,-0.0869,0.431
16.261,0.2884,-0.4988,0.0063,0.576
16.261,0.2184,-0.7685,0.1237,0.808
16.265,0.0834,-1.1719,0.2075,1.193
16.27,3.2184,-12.119,1.7781,12.664
16.281,1.446,-16.0253,1.4843,16.159
16.281,-0.8781,-11.0708,1.8984,11.267
16.285,-2.3798,-3.9594,1.7011,4.923
16.292,-4.3086,4.1191,0.1237,5.962
16.296,-2.1558,8.2309,-0.3711,8.517
16.299,-0.2115,9.754,-0.8982,9.798
16.308,0.2511,9.6737,-2.2214,9.929
16.309,0.4652,7.8516,-2.4248,8.231
16.314,0.6375,5.2319,-1.1556,5.396
16.319,0.4011,3.0771,0.2504,3.113
16.328,-0.0491,1.6016,0.9494,1.862
16.328,-0.3521,0.7372,0.8783,1.199
16.333,-0.3889,0.1415,0.5234,0.667
16.339,-0.2847,-0.3244,0.2334,0.491
16.343,-0.1786,-0.8016,0.0536,0.823
16.348,-0.126,-1.2926,0.0159,1.299
16.354,-0.0621,-1.6994,-0.0156,1.701
16.359,-0.013,-1.9146,-0.048,1.915
16.363,0.0196,-1.8596,-0.0368,1.86
16.368,0.0147,-1.4987,0.0004,1.499
16.374,-0.0277,-0.9805,0.0348,0.982
16.379,-0.0834,-0.4606,0.0542,0.471
16.382,-0.074,-0.0036,-0.0005,0.074
16.387,0.0096,0.3143,-0.1312,0.341
16.394,0.0859,0.4955,-0.2707,0.571
16.397,0.1217,0.6,-0.3332,0.697
16.404,0.1167,0.6685,-0.343,0.76
