time,ax,ay,az,aT
0.004,-0.9489,0.1219,-0.0419,0.958
0.005,-0.8959,0.1344,-0.0032,0.906
0.005,-0.824,0.1229,0.0593,0.835
0.007,-0.7166,0.1497,0.0738,0.736
0.011,-0.7049,0.1456,0.1051,0.727
0.02,-0.6935,0.0774,0.1408,0.712
0.021,-0.7161,-0.0118,0.2263,0.751
0.026,-0.7321,-0.1125,0.3258,0.809
0.03,-0.7681,-0.1771,0.444,0.905
0.035,-0.7763,-0.1608,0.55,0.965
0.04,-0.7728,-0.1238,0.6823,1.038
0.046,-0.7551,-0.0785,0.8316,1.126
0.05,-0.7181,-0.0589,0.998,1.231
0.054,-0.7094,-0.046,1.1197,1.326
0.06,-0.6809,0.0005,1.1775,1.36
0.065,-0.6087,0.1046,1.1717,1.325
0.069,-0.5692,0.1829,1.1405,1.288
0.074,-0.5146,0.2429,1.0527,1.197
0.08,-0.4741,0.2564,0.8914,1.042
0.086,-0.517,0.2742,0.685,0.901
0.097,-0.5481,0.2276,0.5052,0.779
0.097,-0.5223,0.1888,0.385,0.676
0.103,-0.5452,0.1506,0.2622,0.623
0.104,-0.7985,0.0081,0.1389,0.81
0.108,-0.6461,0.0648,-0.0373,0.65
0.113,-0.4639,0.1534,-0.1159,0.502
0.118,-0.2952,0.1616,-0.097,0.35
0.122,-0.1446,0.1444,-0.0957,0.226
0.128,-0.0666,0.0493,-0.0589,0.102
0.132,-0.0414,-0.0353,-0.0393,0.067
0.138,-0.0256,-0.0931,-0.0197,0.099
0.142,0.0025,-0.122,-0.0001,0.122
0.147,0.0097,-0.027,0.0772,0.082
0.152,-0.0331,0.0862,0.1643,0.188
0.156,-0.0968,0.1668,0.1778,0.262
0.161,-0.1499,0.2265,0.1946,0.334
0.166,-0.2256,0.3156,0.174,0.425
0.171,-0.2759,0.3888,0.1735,0.507
0.175,-0.2342,0.4349,0.1616,0.52
0.18,-0.1151,0.4922,0.1742,0.535
0.186,-0.0576,0.523,0.175,0.555
0.19,-0.0116,0.5038,0.1975,0.541
0.195,0.0394,0.4732,0.2389,0.532
0.203,-0.0052,0.4505,0.261,0.521
0.205,-0.0687,0.4382,0.3568,0.569
0.209,-0.1179,0.3908,0.4284,0.592
0.22,-0.1458,0.3753,0.4326,0.591
0.221,-0.1765,0.327,0.4341,0.571
0.225,-0.1406,0.3104,0.4902,0.597
0.23,-0.0503,0.2873,0.491,0.571
0.234,0.0419,0.2314,0.4245,0.485
0.239,0.1648,0.1907,0.3505,0.432
0.243,0.2448,0.1344,0.3385,0.439
0.248,0.3008,0.0769,0.3021,0.433
0.253,0.3256,0.0088,0.3012,0.444
0.258,0.3119,-0.0532,0.479,0.574
0.263,0.2618,-0.1241,0.68,0.739
0.268,0.1663,-0.152,0.7758,0.808
0.272,0.0958,-0.1474,0.7429,0.763
0.277,0.0678,-0.1442,0.7829,0.799
0.282,0.0249,-0.1019,0.7569,0.764
0.287,-0.0146,-0.0257,0.7223,0.723
0.292,-0.092,-0.0179,0.6334,0.64
0.297,-0.1889,-0.0159,0.5377,0.57
0.302,-0.301,-0.0121,0.4635,0.553
0.306,-0.2999,-0.049,0.4011,0.503
0.311,-0.2217,-0.0619,0.3788,0.443
0.317,-0.1981,-0.06,0.375,0.428
0.321,-0.2816,-0.0433,0.3681,0.466
0.326,-0.2711,-0.0693,0.3726,0.466
0.33,-0.3098,-0.1261,0.4244,0.54
0.336,-0.345,-0.1662,0.397,0.552
0.342,-0.2713,-0.1658,0.3384,0.464
0.347,-0.237,-0.1441,0.3299,0.431
0.35,-0.2247,-0.1468,0.4027,0.484
0.355,-0.2081,-0.1766,0.4924,0.563
0.36,-0.1199,-0.1978,0.427,0.486
0.366,-0.1302,-0.1913,0.2903,0.371
0.369,-0.1409,-0.1947,0.1896,0.306
0.374,-0.1021,-0.2556,0.0675,0.283
0.379,-0.0427,-0.2827,-0.0427,0.289
0.384,0.0326,-0.2855,-0.1938,0.347
0.388,0.1142,-0.3093,-0.2733,0.428
0.393,0.1666,-0.3108,-0.3458,0.494
0.403,0.2829,-0.3305,-0.3781,0.576
0.404,0.3674,-0.3445,-0.4347,0.665
0.408,0.4015,-0.3072,-0.4056,0.648
0.414,0.4094,-0.2784,-0.3913,0.631
0.418,0.3886,-0.292,-0.3652,0.608
0.423,0.3757,-0.2956,-0.3247,0.578
0.427,0.4185,-0.3253,-0.3129,0.616
0.433,0.4933,-0.3455,-0.284,0.666
0.437,0.5667,-0.3922,-0.2763,0.743
0.442,0.6247,-0.4108,-0.2035,0.775
0.447,0.6888,-0.4327,-0.1253,0.823
0.452,0.7402,-0.4483,-0.1181,0.873
0.457,0.7192,-0.4194,-0.1651,0.849
0.461,0.6381,-0.3987,-0.2447,0.791
0.468,0.5757,-0.3451,-0.3928,0.778
0.472,0.5102,-0.3182,-0.5641,0.824
0.477,0.4172,-0.2911,-0.7542,0.91
0.483,0.3947,-0.2416,-0.882,0.996
0.487,0.4181,-0.2051,-0.9576,1.065
0.491,0.4992,-0.198,-1.0408,1.171
0.496,1.3311,-0.2457,-1.187,1.8
0.501,1.0204,-0.2064,-1.1907,1.582
0.507,0.8062,-0.1852,-1.0954,1.373
0.51,0.8033,-0.2875,-1.0921,1.386
0.531,0.8753,-0.4588,-0.9558,1.375
0.531,0.8425,-0.6397,-0.6747,1.255
0.532,-0.0552,-0.6187,-0.3823,0.729
0.533,-1.0027,-0.7109,0.1586,1.239
0.566,-1.2051,-0.7963,0.2597,1.468
0.566,-0.7531,-0.6203,0.3742,1.045
0.566,0.2969,-0.272,0.2872,0.495
0.566,0.6019,-0.0469,0.3025,0.675
0.566,0.6432,-0.087,0.5221,0.833
0.567,0.6807,-0.4247,0.6036,1.004
0.567,0.6805,-0.7697,0.4607,1.126
0.569,0.597,-0.933,0.1987,1.125
0.574,0.4801,-0.9405,-0.0392,1.057
0.578,0.3241,-0.8068,-0.2221,0.897
0.583,0.1622,-0.6466,-0.4291,0.793
0.588,0.0285,-0.4313,-0.5334,0.687
0.593,-0.0576,-0.2467,-0.6044,0.655
0.597,-0.0814,-0.0518,-0.7665,0.773
0.604,-0.0927,0.0866,-0.9072,0.916
0.608,-0.0991,0.1257,-0.9263,0.94
0.612,-0.0889,0.073,-0.9078,0.915
0.625,-0.1124,0.0527,-0.811,0.82
0.628,-0.1363,0.0407,-0.6766,0.691
0.628,-0.0678,0.0654,-0.6314,0.638
0.634,0.0646,0.0526,-0.4862,0.493
0.637,0.1818,0.014,-0.2507,0.31
0.642,0.2529,-0.0363,-0.0564,0.262
0.646,0.2732,-0.137,0.011,0.306
0.651,0.2954,-0.2038,-0.0414,0.361
0.657,0.2792,-0.2221,-0.1202,0.376
0.661,-0.1637,-0.206,-0.1829,0.32
0.666,0.1826,-0.2748,-0.1892,0.38
0.671,0.1362,-0.2107,-0.175,0.306
0.676,0.2592,-0.1644,-0.1668,0.349
0.679,0.1627,-0.1096,-0.0807,0.212
0.685,0.2012,-0.0631,0.0046,0.211
0.689,0.2434,-0.0322,0.0079,0.246
0.694,0.2346,-0.0435,-0.0394,0.242
0.707,0.216,-0.0015,-0.0511,0.222
0.708,0.1757,0.0241,-0.0606,0.187
0.734,0.2163,0.005,-0.087,0.233
0.735,0.1228,-0.0328,-0.0466,0.135
0.735,0.0911,-0.1155,0.0007,0.147
0.735,0.0829,-0.1476,-0.0262,0.171
0.736,0.1839,-0.2004,-0.0774,0.283
0.736,0.2603,-0.2094,-0.0547,0.339
0.739,0.2551,-0.2179,0.0419,0.338
0.743,0.2358,-0.1952,0.1481,0.34
0.749,0.3316,-0.158,0.1897,0.413
0.752,0.5425,-0.0707,0.3509,0.65
0.76,0.5015,-0.0384,0.4474,0.673
0.763,0.5086,-0.0444,0.3403,0.614
0.767,0.4353,-0.0718,0.3287,0.55
0.772,0.329,-0.0866,0.2115,0.401
0.776,0.1537,-0.046,0.0726,0.176
0.781,-0.0641,0.0215,-0.1168,0.135
0.787,-0.1108,0.0346,-0.354,0.373
0.792,0.1242,0.3126,-0.221,0.403
0.796,0.25,0.3434,-0.2323,0.484
0.809,0.3457,0.2635,-0.2201,0.487
0.81,0.3867,0.0941,-0.0885,0.408
0.811,0.2519,-0.0739,-0.0528,0.268
0.838,0.0188,-0.1287,-0.1243,0.18
0.838,-0.3023,-0.0686,-0.1617,0.35
0.838,-0.544,0.0338,-0.2294,0.591
0.839,-0.5201,0.147,-0.2484,0.595
0.839,-0.4977,0.2655,-0.142,0.582
0.84,-0.5362,0.3219,-0.0273,0.626
0.846,-0.5256,0.3279,0.0241,0.62
0.85,-0.3995,0.3291,-0.0119,0.518
0.855,-0.4114,0.3713,0.1875,0.585
0.859,-0.2654,0.3181,0.175,0.45
0.864,-0.2368,0.1533,0.156,0.322
0.869,-0.0708,-0.0839,0.1233,0.165
0.874,0.2223,-0.3209,0.2962,0.49
0.878,0.3254,-0.4044,0.4759,0.704
0.887,0.2956,-0.4612,0.4306,0.697
0.889,0.0499,-0.4527,0.2272,0.509
0.894,-0.0693,-0.4194,0.0477,0.428
0.899,0.0175,-0.4303,-0.0362,0.432
0.904,0.3417,-0.1821,0.2742,0.475
0.908,0.306,-0.1682,0.2973,0.459
0.912,0.3856,-0.2115,0.1552,0.466
0.929,0.2708,-0.1998,0.0634,0.342
0.93,0.2062,-0.195,-0.0211,0.285
0.93,0.0316,-0.171,-0.1151,0.209
0.941,-0.012,-0.1345,-0.2069,0.247
0.941,-0.147,-0.0592,-0.1815,0.241
0.959,-0.3443,0.0162,-0.1276,0.368
0.96,-0.4287,0.0794,-0.1429,0.459
0.96,-0.364,0.0917,-0.0933,0.387
0.96,-0.1264,0.0747,-0.0483,0.155
0.961,0.0187,-0.0246,0.064,0.071
0.968,0.2645,-0.2323,0.3653,0.507
0.971,0.5118,-0.4936,0.5877,0.922
0.976,0.5927,-0.6984,0.6904,1.147
0.982,0.5673,-0.763,0.7645,1.22
0.99,0.6128,-0.8073,0.7909,1.286
0.991,0.7176,-0.81,0.8296,1.364
0.996,0.3745,-0.7302,0.7418,1.106
1.006,0.4758,-0.6563,0.604,1.011
1.007,0.5506,-0.6001,0.6436,1.038
1.011,0.7042,-0.5596,0.7311,1.159
1.016,0.5683,-0.4705,0.7497,1.052
1.035,0.6532,-0.4955,0.6301,1.034
1.036,0.7513,-0.5125,0.5518,1.064
1.037,0.7689,-0.49,0.634,1.111
1.037,0.7266,-0.423,0.7188,1.106
1.038,0.734,-0.3613,0.6697,1.057
1.043,0.7127,-0.2594,0.5537,0.939
1.048,0.7316,-0.1958,0.3567,0.837
1.053,0.8242,-0.1225,0.253,0.871
1.058,0.8635,-0.044,0.3237,0.923
1.062,0.8178,0.0182,0.3606,0.894
1.068,0.6968,0.1548,0.3207,0.783
1.074,0.5771,0.325,0.1828,0.687
1.077,0.2609,0.6105,-0.027,0.664
1.081,0.4731,0.3946,-0.1458,0.633
1.089,0.6664,0.3234,-0.0759,0.745
1.092,0.4888,0.3701,0.0559,0.616
1.096,0.4257,0.3428,0.1445,0.565
1.11,0.4731,0.2096,0.2117,0.559
1.111,0.5625,0.1518,0.2362,0.629
1.112,1.5094,-0.0172,0.1202,1.514
1.131,0.5541,0.0193,0.0309,0.555
1.131,-0.0699,0.0296,-0.1564,0.174
1.132,-0.16,0.036,-0.2862,0.33
1.132,-0.3188,0.2222,-0.2415,0.458
1.137,-0.4722,0.4489,-0.063,0.655
1.141,-0.6365,0.5885,0.0821,0.871
1.146,-0.7345,0.6213,0.1964,0.982
1.15,-1.2777,0.6856,0.2609,1.473
1.155,-0.6555,0.645,0.216,0.945
1.16,-0.3174,0.5503,0.2481,0.682
1.165,-0.3616,0.4856,0.3522,0.7
1.169,-0.3531,0.3605,0.4061,0.648
1.174,0.0418,0.1951,0.2352,0.308
1.178,1.1683,0.0455,-0.0147,1.169
1.184,1.1254,-0.2564,0.11,1.159
1.188,-0.1248,-0.2081,0.2933,0.381
1.193,-0.2035,-0.3171,0.2197,0.436
1.198,0.1728,-0.374,0.2508,0.482
1.203,0.5004,-0.2298,0.4132,0.688
1.208,0.5362,-0.0128,0.5111,0.741
1.213,0.4676,0.0803,0.4063,0.625
1.218,0.3295,0.1403,0.264,0.445
1.222,0.0528,0.244,0.1846,0.311
1.227,-0.083,0.3054,0.1154,0.337
1.232,-0.1072,0.3794,0.0133,0.395
1.239,-0.1443,0.4854,-0.1264,0.522
1.243,-0.0898,0.5904,-0.2705,0.656
1.248,-0.0163,0.6094,-0.3332,0.695
1.252,0.0179,0.6076,-0.291,0.674
1.257,-0.0423,0.6263,-0.2133,0.663
1.261,0.0399,0.6583,-0.0668,0.663
1.267,-0.4699,0.7177,0.0623,0.86
1.271,-0.1727,0.885,0.1863,0.921
1.276,0.3034,0.8675,0.2291,0.947
1.281,0.4764,0.9521,0.284,1.102
1.289,0.3468,1.0264,0.2793,1.119
1.292,0.3235,0.9425,0.2078,1.018
1.296,0.3251,0.7366,0.2083,0.832
1.313,0.3224,0.5214,0.3331,0.698
1.313,0.4323,0.2938,0.4388,0.682
1.314,0.5926,0.1802,0.5829,0.851
1.343,0.641,0.2259,0.5383,0.867
1.343,0.5847,0.3498,0.4175,0.799
1.343,0.4641,0.4212,0.3039,0.697
1.344,0.386,0.4669,0.2596,0.659
1.344,0.1108,0.5686,0.1338,0.594
1.344,-0.2661,0.6764,0.0076,0.727
1.345,-0.5205,0.7619,-0.0378,0.924
1.35,-0.6701,0.796,-0.0287,1.041
1.357,-0.7964,0.874,-0.1227,1.189
1.358,-0.9203,0.9218,-0.3247,1.342
1.364,-1.1181,1.0283,-0.5483,1.615
1.368,-1.2417,1.1435,-0.5954,1.79
1.373,-1.0717,1.1598,-0.3418,1.616
1.377,-0.7515,1.0523,-0.1031,1.297
1.382,-0.4404,0.8827,0.0492,0.988
1.388,-0.3279,0.7074,0.1587,0.796
1.392,-0.3578,0.588,0.142,0.703
1.397,-0.2716,0.4599,-0.0128,0.534
1.413,-0.0075,0.3236,-0.026,0.325
1.413,0.2434,0.1691,0.2361,0.379
1.414,0.5622,0.1705,0.6516,0.877
1.444,0.3904,0.1092,0.5701,0.7
1.444,0.5064,0.1241,0.5444,0.754
1.444,0.3901,0.301,0.6344,0.803
1.445,0.1864,0.4651,0.4956,0.705
1.445,-0.4659,0.6077,0.0876,0.771
1.445,-0.3928,0.7731,-0.2503,0.903
1.446,0.0751,1.0482,-0.43,1.135
1.455,0.2939,1.2373,-0.4207,1.339
1.456,0.4352,1.169,-0.3088,1.285
1.461,0.6775,0.8421,-0.1163,1.087
1.466,0.9428,0.4746,-0.0416,1.056
1.472,1.0879,0.2482,-0.0083,1.116
1.476,0.9814,0.1483,-0.0949,0.997
1.481,0.4046,0.2198,-0.3539,0.581
1.486,-0.4493,0.197,-0.8398,0.973
1.489,0.1538,0.4999,-0.6633,0.845
1.499,0.7781,1.1671,0.4981,1.489
1.503,0.5136,0.9607,-0.2077,1.109
1.514,0.4842,0.8823,-0.3984,1.082
1.515,0.2625,0.9067,-0.1323,0.953
1.515,0.6222,0.754,0.0333,0.978
1.546,0.3725,0.6945,0.0051,0.788
1.546,0.2545,0.8233,0.1254,0.871
1.546,0.3088,1.025,0.1145,1.077
1.547,0.3402,1.1606,-0.0036,1.209
1.547,0.3707,1.2645,-0.0807,1.32
1.547,0.3781,1.2353,-0.1149,1.297
1.548,0.4811,1.1175,-0.2547,1.243
1.554,0.5576,0.9481,-0.357,1.156
1.557,0.4955,0.7057,-0.1733,0.88
1.563,0.4833,0.4278,0.1171,0.656
1.567,0.5059,0.3138,0.3806,0.707
1.574,0.5283,0.2907,0.5315,0.804
1.576,0.5273,0.2859,0.6371,0.875
1.581,0.5326,0.2416,0.6497,0.874
1.588,0.5054,0.2062,0.4522,0.709
1.591,0.2971,0.2191,0.2214,0.43
1.596,0.2848,0.0877,0.1363,0.328
1.603,0.6077,-0.2328,0.1606,0.67
1.606,0.729,-0.5592,0.4595,1.027
1.611,0.822,-0.8667,0.77,1.421
1.615,0.916,-1.0205,0.9468,1.666
1.628,1.0785,-1.0526,0.9447,1.779
1.628,1.106,-1.0327,0.9003,1.761
1.636,1.0989,-1.0731,0.9666,1.815
1.636,1.083,-1.1906,0.9213,1.854
1.657,1.1773,-1.1984,0.7739,1.85
1.658,1.1782,-1.2023,0.6659,1.81
1.658,1.145,-1.1733,0.5135,1.718
1.658,1.1874,-1.1425,0.453,1.709
1.659,1.2307,-1.0399,0.3455,1.648
1.665,1.1651,-0.86,0.1932,1.461
1.671,0.6488,-0.6959,0.2711,0.989
1.674,0.4471,-0.5641,0.0458,0.721
1.678,0.246,-0.4112,-0.3439,0.59
1.683,-0.0188,-0.2435,-0.6733,0.716
1.688,-0.2632,-0.0991,-0.7969,0.845
1.693,-0.4149,-0.1706,-1.0449,1.137
1.697,0.4295,-0.2923,-1.4558,1.546
1.712,0.5246,-0.1711,-1.449,1.55
1.713,1.9841,-0.3137,-1.7517,2.665
1.714,0.4565,-0.7188,-1.4988,1.724
1.741,-0.0186,-1.0516,-1.2478,1.632
1.742,-0.1094,-1.1772,-1.1345,1.639
1.742,-0.3327,-1.0139,-0.8092,1.339
1.742,-0.6227,-0.6744,-0.5534,1.072
1.743,-0.7656,-0.3369,-0.4887,0.969
1.743,-1.0064,0.0125,-0.5787,1.161
1.746,-1.2828,0.2428,-0.8355,1.55
1.753,-1.6624,0.3956,-1.0104,1.985
1.756,-2.0314,0.5314,-1.0442,2.345
1.765,-2.3864,0.6628,-0.9991,2.671
1.766,-2.5516,0.7328,-0.9927,2.834
1.771,-2.4898,0.7563,-0.9674,2.776
1.775,-1.1553,0.6472,-0.9379,1.623
1.779,-0.7209,0.4656,-0.6555,1.08
1.785,-0.5409,0.1059,-0.2592,0.609
1.791,-0.1917,-0.4246,0.0338,0.467
1.794,-0.0196,-0.7631,0.2426,0.801
1.799,0.088,-0.8262,0.2671,0.873
1.805,0.0811,-0.7099,0.1696,0.734
1.809,-0.0016,-0.6293,0.0148,0.63
1.813,-0.083,-0.5675,-0.0707,0.578
1.83,-0.0917,-0.5434,-0.0751,0.556
1.83,-0.0542,-0.5996,-0.0679,0.606
1.831,0.0678,-0.6809,0.013,0.684
1.834,0.1355,-0.7704,0.2224,0.813
1.862,0.2918,-0.8873,0.4669,1.044
1.862,0.3525,-0.9915,0.6774,1.251
1.862,0.4373,-1.0258,0.7992,1.372
1.863,0.3675,-1.053,0.8729,1.416
1.863,0.4945,-1.1094,1.0591,1.611
1.863,0.4591,-1.2169,1.2693,1.817
1.868,0.4689,-1.2709,1.3029,1.88
1.875,0.3475,-1.2069,1.2629,1.781
1.877,0.1692,-1.2065,1.1971,1.708
1.882,-0.0807,-1.2001,1.1246,1.647
1.887,-0.2688,-1.075,1.0119,1.501
1.893,-0.3387,-0.9149,0.8662,1.305
1.897,-0.6588,-0.7958,0.7566,1.281
1.907,-0.6051,-0.7893,0.6473,1.187
1.908,-0.6269,-0.809,0.4951,1.137
1.911,-0.652,-0.7809,0.3909,1.09
1.916,-0.7452,-0.6809,0.3872,1.081
1.941,-0.5765,-0.7076,0.3597,0.981
1.941,-0.549,-0.8085,0.3203,1.028
1.942,-0.9895,-0.7137,0.3217,1.262
1.942,-0.7915,-0.6531,0.2492,1.056
1.942,-0.9711,-0.5667,0.1268,1.131
1.944,-0.9491,-0.782,0.0071,1.23
1.951,-0.8213,-0.5791,-0.067,1.007
1.956,-1.0057,-0.2597,-0.1194,1.046
1.959,-0.9933,-0.1943,-0.1598,1.025
1.965,-2.4717,0.5616,0.4118,2.568
1.971,-4.6537,2.505,0.809,5.347
1.974,-1.0672,0.5852,-1.6495,2.05
1.979,-1.6776,0.3975,-1.4774,2.27
1.984,-0.9389,0.5477,-0.2115,1.107
1.989,-0.4536,-0.0545,0.253,0.522
1.993,-0.3358,-0.983,0.2158,1.061
1.998,-0.2171,-1.4527,0.3247,1.504
2.013,-0.221,-1.3893,0.443,1.475
2.013,-0.3427,-1.0895,0.3342,1.19
2.014,-0.4763,-0.7803,-0.1426,0.925
2.018,-0.5113,-0.5416,-0.5883,0.949
2.037,-0.4024,-0.3556,-0.6878,0.873
2.038,-0.3237,-0.2693,-0.547,0.69
2.039,-0.2307,-0.2494,-0.3643,0.498
2.039,-0.0492,-0.3006,-0.2163,0.374
2.041,0.0541,-0.3416,-0.1364,0.372
2.047,0.1226,-0.3967,-0.0408,0.417
2.053,0.2065,-0.4614,0.1973,0.543
2.056,0.2079,-0.5082,0.3941,0.676
2.06,0.1632,-0.4924,0.3779,0.642
2.067,0.1299,-0.4237,0.1322,0.462
2.071,0.1073,-0.325,-0.1279,0.365
2.076,0.0034,-0.2311,-0.324,0.398
2.08,0.0231,-0.2226,-0.3225,0.393
2.086,0.1428,-0.2658,-0.3028,0.428
2.09,0.2703,-0.3348,-0.2124,0.48
2.095,0.7888,-0.3776,-0.1657,0.89
2.1,0.5488,-0.4332,0.0837,0.704
2.107,0.3149,-0.5433,0.2944,0.694
2.113,0.1913,-0.7112,0.3545,0.817
2.115,0.0335,-0.8671,0.0895,0.872
2.127,-2.8515,-0.3594,-1.4184,3.205
2.127,-1.6016,-0.1556,-0.5238,1.692
2.128,-1.4541,0.2505,0.3102,1.508
2.135,-0.3424,0.011,1.1066,1.158
2.152,0.4985,-0.067,1.656,1.731
2.152,-0.0099,-0.2271,2.1028,2.115
2.152,0.0044,-0.5798,1.8929,1.98
2.153,0.2376,-0.7053,0.9837,1.233
2.157,-0.0251,-0.4862,0.4886,0.69
2.162,-0.2514,-0.3906,0.3038,0.555
2.169,-0.3154,-0.3362,-0.4636,0.654
2.172,-0.9746,0.0149,-0.7265,1.216
2.178,-1.4253,0.2263,-0.314,1.477
2.183,-1.3084,0.2291,-0.4552,1.404
2.19,-1.2629,0.3293,-0.6047,1.438
2.192,-0.949,0.3059,-0.308,1.044
2.196,-0.5485,0.0899,0.203,0.592
2.21,-0.1195,-0.1383,0.5655,0.594
2.21,0.077,-0.1766,0.7392,0.764
2.211,-0.0788,-0.2171,1.1716,1.194
2.216,0.0096,-0.442,1.3966,1.465
2.231,-0.1685,-0.7221,1.4167,1.599
2.231,0.1884,-0.7368,1.1653,1.391
2.231,0.0432,-0.6151,1.0178,1.19
2.237,-0.1618,-0.5745,0.9191,1.096
2.242,-0.4105,-0.492,0.8758,1.085
2.245,-0.6774,-0.4261,0.7944,1.128
2.25,-0.8374,-0.3274,0.6982,1.138
2.254,-0.8744,-0.2425,0.5293,1.051
2.259,-0.6707,-0.2352,0.3641,0.799
2.264,-0.4335,-0.3074,0.2885,0.605
2.269,-0.2504,-0.4091,0.3095,0.571
2.275,-0.3235,-0.6673,0.3699,0.829
2.28,-0.4956,-1.188,0.4581,1.366
2.284,0.075,-0.9915,0.3327,1.049
2.289,-0.3122,-0.6246,0.3529,0.782
2.293,-0.4473,-0.3205,0.4186,0.691
2.3,-0.5959,-0.0395,0.6328,0.87
2.306,-0.6635,0.1717,0.7592,1.023
2.308,-0.6737,0.3318,0.6117,0.969
2.313,-0.8943,0.288,0.542,1.085
2.317,-1.1065,0.0195,0.3848,1.172
2.322,-0.9835,-0.0473,0.3289,1.038
2.327,-0.8443,-0.0607,0.3644,0.922
2.332,-0.7303,-0.1111,0.4218,0.851
2.338,-0.6127,-0.1908,0.415,0.764
2.343,-0.5352,-0.153,0.2622,0.615
2.347,-0.5272,-0.0825,0.0876,0.541
2.352,-0.5589,-0.0745,0.082,0.57
2.357,-0.6544,-0.0093,0.1162,0.665
2.362,-0.7034,0.11,0.1474,0.727
2.367,-0.9443,0.2357,-0.1064,0.979
2.371,-0.1808,0.3491,-0.4851,0.624
2.376,-0.2836,0.5298,-0.924,1.102
2.38,-0.3689,0.3805,-0.6391,0.83
2.387,-0.3232,0.1725,-0.3836,0.53
2.39,-0.1868,0.2563,-0.4844,0.579
2.395,-0.1297,0.438,-0.6568,0.8
2.4,-0.2502,0.447,-0.6017,0.79
2.405,-0.2728,0.2705,-0.5438,0.666
2.409,-0.2127,0.1186,-0.4591,0.52
2.414,-0.2162,0.0174,-0.3881,0.445
2.426,-0.2003,0.0079,-0.4886,0.528
2.426,-0.1887,0.0958,-0.7824,0.811
2.433,-0.2485,0.1077,-0.8992,0.939
2.436,0.3005,0.1064,-1.2482,1.288
2.449,-1.3707,-0.1612,-0.3592,1.426
2.45,-0.6154,-0.304,0.0027,0.686
2.45,-0.6274,-0.1139,-0.2022,0.669
2.453,-0.5461,0.1485,-0.2926,0.637
2.458,-0.6503,0.2104,-0.297,0.745
2.463,-0.776,0.1076,-0.3302,0.85
2.468,-0.948,-0.0206,-0.3445,1.009
2.472,-0.9584,-0.1137,-0.2901,1.008
2.477,-0.8598,-0.1571,-0.1838,0.893
2.482,-0.652,-0.2412,-0.1263,0.707
2.487,-0.5551,-0.3516,0.0642,0.66
2.492,-0.5042,-0.3953,0.2321,0.681
2.496,-0.5152,-0.3847,0.3228,0.719
2.501,-0.4296,-0.4015,0.303,0.662
2.506,-0.2879,-0.4868,0.2112,0.604
2.511,-0.2431,-0.6312,0.2986,0.739
2.516,-0.1212,-0.8019,0.4457,0.925
2.521,-0.0348,-0.9228,0.581,1.091
2.526,-0.0148,-0.9204,0.6042,1.101
2.531,-0.0394,-0.9216,0.4916,1.045
2.536,-0.073,-0.9144,0.3724,0.99
2.54,-0.0659,-0.9125,0.3085,0.965
2.545,0.0292,-0.949,0.3213,1.002
2.55,0.0733,-1.0072,0.4273,1.097
2.555,0.1358,-1.066,0.6028,1.232
2.559,0.3101,-1.1357,0.8024,1.425
2.564,0.2983,-1.1072,0.8664,1.437
2.57,0.2185,-0.8954,0.659,1.133
2.574,0.0191,-0.7445,0.4768,0.884
2.579,-0.119,-0.6659,0.3676,0.77
2.583,-0.137,-0.5276,0.1662,0.57
2.589,-0.1959,-0.3213,-0.0561,0.38
2.594,-0.1862,-0.1677,-0.2925,0.385
2.598,-0.1708,-0.1207,-0.5266,0.567
2.607,-0.1333,-0.0522,-0.6131,0.63
2.608,-0.6311,-0.0093,-0.4712,0.788
2.613,0.389,-0.0538,-0.0656,0.398
2.618,0.5876,0.2454,-1.1914,1.351
2.623,0.1986,0.2864,-0.7929,0.866
2.628,-0.001,0.1831,-0.3627,0.406
2.632,0.092,0.0899,-0.2471,0.279
2.638,-0.2501,-0.3833,-0.1802,0.492
2.642,-0.0851,-0.3657,-0.0281,0.377
2.647,0.2445,0.197,-0.1926,0.368
2.651,1.4471,0.1474,-0.9025,1.712
2.657,0.9153,0.4895,-0.7526,1.282
2.661,0.1024,0.8733,-0.6184,1.075
2.666,-0.0353,1.4539,-0.7172,1.622
2.672,0.2132,0.4435,-0.9196,1.043
2.676,0.4063,0.4036,-0.2672,0.632
2.681,0.2185,0.6664,0.3796,0.797
2.686,3.0931,0.8887,0.3541,3.238
2.691,2.3836,0.3985,-0.2278,2.427
2.695,0.2797,-0.1944,-0.5058,0.61
2.7,0.1333,-0.4609,-0.3561,0.598
2.705,-0.2714,-0.2863,-0.3267,0.512
2.71,-0.9668,0.0407,0.0562,0.969
2.715,-1.4835,0.2168,0.6063,1.617
2.724,-1.3237,0.3707,0.9944,1.697
2.724,-1.4098,0.4487,1.2473,1.935
2.729,-1.491,0.5183,1.3581,2.082
2.734,-1.3668,0.55,1.4039,2.035
2.74,-1.4844,0.5048,1.3727,2.084
2.744,-1.6192,0.479,1.2142,2.08
2.748,-1.6756,0.5878,0.9046,1.993
2.755,-1.7875,0.6483,0.6038,1.995
2.758,-1.7084,0.5349,0.5171,1.863
2.766,-1.4436,0.4613,0.4504,1.581
2.769,-1.2423,0.3755,0.3559,1.346
2.773,-1.0057,0.211,0.2931,1.069
2.778,-0.5346,0.0304,0.3049,0.616
2.783,-0.2854,-0.0609,0.3864,0.484
2.788,-0.1171,-0.1083,0.3726,0.405
2.793,0.0811,-0.1741,0.364,0.412
2.797,-0.1281,-0.1792,0.3342,0.4
2.802,-0.5432,0.0129,0.1684,0.569
2.807,-0.3081,0.0174,0.0867,0.321
2.814,-0.1503,-0.0646,0.1509,0.223
2.817,-0.1856,0.1326,0.2008,0.304
2.827,0.0301,0.387,0.1024,0.401
2.827,0.053,0.2684,0.0687,0.282
2.831,0.3669,0.239,0.0802,0.445
2.837,0.3878,0.1271,0.1153,0.424
2.841,0.3614,0.0288,0.2073,0.418
2.845,0.7722,0.174,0.0717,0.795
2.85,0.5991,-0.0368,-0.0214,0.601
2.855,0.9346,-0.2299,-0.005,0.962
2.86,0.7069,-0.2542,0.087,0.756
2.865,0.4856,-0.3853,0.324,0.699
2.87,0.1726,-0.2916,0.6056,0.694
2.875,-0.2101,-0.1205,0.8843,0.917
2.88,-0.2961,-0.0793,1.1222,1.163
2.885,0.1689,0.0742,1.1595,1.174
2.889,0.1851,-0.0049,1.1784,1.193
2.894,0.1762,-0.0638,1.2386,1.253
2.899,0.5341,-0.1914,1.2925,1.412
2.905,0.563,-0.2875,1.278,1.426
2.91,0.6757,-0.9447,1.2741,1.724
2.915,0.5946,-1.5312,0.8028,1.828
2.918,1.9799,-1.5823,0.3158,2.554
2.988,2.2696,-1.6669,-0.0125,2.816
2.989,1.5572,-1.2216,0.15,1.985
2.989,0.7309,-0.3681,0.4758,0.947
2.989,0.356,0.3277,0.53,0.718
2.989,0.086,0.4337,0.3393,0.557
2.989,0.0508,0.0032,0.9532,0.955
2.989,0.1059,-0.6416,3.1148,3.182
2.99,0.1558,-0.5502,3.6172,3.662
2.99,0.239,0.0019,1.3403,1.361
2.99,0.3058,0.1618,-0.6722,0.756
2.99,0.2421,0.0895,-1.2946,1.32
2.99,0.296,0.0017,-1.0171,1.059
2.99,0.6156,0.0141,-0.7518,0.972
2.99,0.5385,-0.0604,-0.9987,1.136
2.99,-1.175,0.0791,-1.2636,1.727
2.996,-3.9331,0.1336,-1.5191,4.218
3.001,-4.0015,-0.1097,-0.7284,4.069
3.006,-3.1099,-0.0376,-0.0556,3.111
3.01,-2.9753,0.7605,0.1904,3.077
3.015,-2.5636,1.4513,0.7356,3.036
3.026,-2.0938,1.4896,1.1053,2.797
3.026,-1.2509,1.2127,0.8866,1.955
3.03,-0.7136,0.9787,0.4024,1.276
3.035,-0.6865,0.66,0.2439,0.983
3.041,-0.6625,0.2829,0.1182,0.73
3.044,-0.5449,-0.0364,0.022,0.547
3.049,-0.3217,-0.2431,0.0101,0.403
3.055,0.0775,-0.3445,0.0442,0.356
3.059,0.6768,-0.4017,0.1942,0.811
3.064,0.4147,-0.2731,0.1597,0.522
3.068,0.2296,-0.0888,-0.2596,0.358
3.073,0.2931,0.0383,-0.8436,0.894
3.078,0.307,0.0546,-1.1409,1.183
3.083,0.4616,0.025,-0.9082,1.019
3.088,0.6728,-0.0874,-0.504,0.845
3.093,1.066,-0.2545,-0.2866,1.133
3.098,1.4371,-0.2974,-0.3341,1.505
3.103,1.6606,-0.2137,-0.3811,1.717
3.107,1.8874,-0.0819,-0.4635,1.945
3.112,1.8165,-0.1484,-0.3325,1.853
3.117,1.896,-0.1576,-0.1985,1.913
3.122,1.9107,-0.1075,-0.1831,1.922
3.127,1.7752,-0.0862,-0.1982,1.788
3.132,1.3275,-0.273,0.6357,1.497
3.137,1.1748,-0.5112,0.4797,1.368
3.142,0.8721,-0.4395,-0.1059,0.982
3.146,0.7687,-0.2212,-0.0625,0.802
3.151,1.132,0.217,0.3602,1.208
3.157,0.3777,-0.1299,0.7339,0.836
3.162,0.1872,-0.4322,-0.009,0.471
3.166,0.1801,-0.177,-0.3232,0.41
3.17,-0.0961,0.2735,-0.091,0.304
3.175,-0.4166,0.5553,0.3238,0.766
3.18,0.0422,0.9411,-0.3536,1.006
3.185,-0.6769,0.7786,-0.9194,1.382
3.19,-1.1107,0.5402,-1.2521,1.759
3.194,-1.4799,0.2136,-1.2009,1.918
3.2,-1.4883,0.0892,-0.7603,1.674
3.204,-1.2848,0.2911,-0.2018,1.333
3.21,-0.8482,0.6356,-0.0528,1.061
3.214,-0.6949,0.6418,-0.095,0.951
3.219,-0.9644,0.4341,-0.0386,1.058
3.224,-1.0757,0.146,-0.1222,1.092
3.229,-0.9659,-0.034,-0.135,0.976
3.233,-0.7624,-0.0345,0.0378,0.764
3.238,-0.723,0.0029,0.021,0.723
3.243,-0.6532,-0.0241,-0.1066,0.662
3.248,-0.7079,-0.0718,-0.173,0.732
3.253,-0.7613,-0.1853,-0.3434,0.855
3.27,-0.6683,-0.2542,-0.6371,0.958
3.27,-0.5673,-0.1966,-0.8942,1.077
3.27,-0.4748,-0.1243,-1.096,1.201
3.274,-0.071,-0.1488,-1.3099,1.32
3.277,0.3019,-0.0705,-1.3528,1.388
3.282,0.4866,-0.0751,-1.0438,1.154
3.287,0.5647,0.0136,-0.9944,1.144
3.291,0.1965,0.2852,-1.0482,1.104
3.297,0.2921,0.6549,-1.262,1.451
3.301,0.2003,0.9768,-1.086,1.474
3.306,0.0355,0.9585,0.0533,0.961
3.311,-0.1515,0.653,0.8486,1.081
3.316,0.8282,0.7983,1.0116,1.532
3.32,0.1465,0.7737,0.3655,0.868
3.325,-0.5409,0.4645,-0.4088,0.822
3.33,1.1297,0.5732,-0.0596,1.268
3.335,0.3926,0.5677,0.5567,0.887
3.34,-0.6007,0.8766,0.5138,1.18
3.345,-1.138,1.1791,0.4985,1.713
3.35,-1.3399,0.8943,0.1284,1.616
3.355,-1.2723,0.36,-0.2831,1.352
3.359,-1.4793,-0.0797,-0.3703,1.527
3.365,-1.2578,-0.1906,-0.406,1.335
3.369,-1.2303,-0.1263,-0.3283,1.28
3.374,-1.0425,-0.0416,-0.4555,1.138
3.379,-0.6465,-0.247,-0.7708,1.036
3.384,-0.3946,-0.2352,-0.5547,0.72
3.392,-0.0636,0.2019,-0.8976,0.922
3.393,0.2067,-0.3733,-0.4377,0.611
3.398,0.3844,-0.9253,-0.5877,1.162
3.404,-0.0443,-0.7561,-1.2015,1.42
3.41,-0.2247,-0.5953,-1.0191,1.201
3.413,-0.4492,-0.3423,-0.5704,0.803
3.417,-0.713,0.0804,-0.5872,0.927
3.422,-1.2359,0.3057,-0.8289,1.519
3.427,-1.7495,0.3619,-0.8069,1.96
3.432,-2.1041,0.2439,-1.0254,2.353
3.437,-2.2958,0.1,-1.2398,2.611
3.442,-2.5029,-0.1232,-1.3343,2.839
3.446,-2.6112,-0.1097,-1.4407,2.984
3.451,-2.3336,-0.0239,-1.7957,2.945
3.457,-1.8017,0.0198,-1.4788,2.331
3.461,-1.2928,-0.1597,-1.2867,1.831
3.466,-0.8293,-0.2965,-1.4749,1.718
3.471,-0.389,-0.5373,-1.9702,2.079
3.476,-0.2901,-0.8787,-1.9077,2.12
3.481,-0.3118,-1.0163,-1.7617,2.058
3.486,-0.3319,-1.093,-1.9345,2.247
3.491,-0.2833,-1.2034,-2.049,2.393
3.495,-0.241,-1.1628,-2.0081,2.333
3.5,-0.1987,-1.3124,-1.8243,2.256
3.505,-0.17,-1.3293,-1.7217,2.182
3.51,0.0199,-1.2481,-1.7322,2.135
3.514,0.0506,-1.0763,-1.6644,1.983
3.519,0.1744,-0.9812,-1.5899,1.876
3.524,0.2064,-1.1496,-1.4624,1.872
3.529,0.2105,-1.1813,-1.1321,1.65
3.534,0.1933,-1.0391,-1.0051,1.459
3.538,0.1377,-0.9695,-0.9359,1.355
3.543,0.1847,-1.0809,-0.8629,1.395
3.548,0.209,-1.3248,-0.415,1.404
3.553,-0.0416,-1.3948,-0.1728,1.406
3.558,-0.3787,-1.3181,-0.2413,1.392
3.563,-0.6562,-1.6153,-0.2952,1.768
3.567,-0.8996,-1.5432,0.1759,1.795
3.572,-0.8228,-1.29,0.0885,1.533
3.577,-0.7872,-0.9529,0.2284,1.257
3.582,-0.6118,-0.4675,-0.0102,0.77
3.587,-0.3671,-0.0889,0.0525,0.381
3.592,-0.0513,0.0354,0.1636,0.175
3.599,0.179,-0.2263,0.1145,0.31
3.601,0.2442,-0.5346,0.246,0.637
3.606,0.0717,-0.7984,0.3683,0.882
3.611,0.1228,-0.9846,0.0564,0.994
3.616,1.0626,-0.1635,-0.3662,1.136
3.621,0.9323,-0.3622,-0.0617,1.002
3.627,0.1398,-1.2248,0.4415,1.309
3.631,-0.9538,-2.0006,0.0465,2.217
3.637,-0.8315,-2.6856,-1.108,3.022
3.64,0.6505,-3.3742,-1.4006,3.711
3.645,-1.1894,-2.8048,-0.0179,3.047
3.65,-1.1958,-2.9009,0.0063,3.138
3.658,-0.2556,-2.7962,-0.0002,2.808
3.66,-1.7095,-5.1382,7.4552,9.214
3.664,-3.6017,-2.5906,-4.177,6.093
3.67,-2.2748,-2.1436,-0.821,3.232
3.675,2.6572,-2.7707,0.0778,3.84
3.684,4.0425,-2.103,0.1725,4.56
3.684,2.3137,-1.5117,-1.0805,2.967
3.689,1.1665,-1.7021,-1.2375,2.406
3.694,1.0439,-2.5614,-0.8203,2.885
3.699,0.954,-3.0948,-0.6368,3.301
3.704,0.5737,-3.1474,-0.531,3.243
3.709,0.2662,-2.7342,-0.6365,2.82
3.713,0.3517,-2.0397,0.0553,2.071
3.718,0.3359,-1.6942,-0.6176,1.834
3.723,-0.0176,-0.8176,-0.185,0.838
3.728,0.4452,-0.3781,-0.2011,0.618
3.733,0.3253,0.0736,-0.212,0.395
3.737,-0.0081,0.4591,-0.234,0.515
3.742,0.2112,0.3765,-0.494,0.656
3.748,0.4233,0.3122,-0.3029,0.607
3.752,0.4875,0.6489,-0.1034,0.818
3.758,0.5688,1.1277,-0.2084,1.28
3.762,0.542,1.4452,0.0287,1.544
3.766,-1.0354,2.1481,-0.5674,2.451
3.771,-3.9484,2.619,-1.6604,5.021
3.777,-3.3762,1.0547,-0.9566,3.664
3.781,-3.1417,1.1278,0.1557,3.342
3.785,-3.5246,2.4206,-0.4935,4.304
3.791,-3.0624,3.3971,-1.354,4.77
3.795,-1.7578,3.6682,-1.5987,4.37
3.8,-0.0748,3.1927,-1.7421,3.638
3.805,1.5508,0.1967,1.7389,2.338
3.81,0.7187,1.1561,-0.2587,1.386
3.814,0.4593,2.8358,1.185,3.108
3.819,2.6746,1.2908,1.1329,3.179
3.824,2.0221,0.3474,1.4468,2.511
3.829,-0.3599,1.7514,0.7422,1.936
3.834,0.0146,1.2591,0.0109,1.259
3.839,0.5888,1.0788,0.0943,1.233
3.844,0.0155,0.6113,0.6047,0.86
3.849,0.4018,0.612,0.627,0.964
3.853,0.7181,0.8488,0.6319,1.279
3.858,0.4527,1.121,0.3859,1.269
3.863,-0.0393,1.3521,0.3585,1.399
3.868,-0.331,1.5801,0.2311,1.631
3.872,-0.3499,1.5944,0.2212,1.647
3.878,-0.2093,1.6055,0.271,1.642
3.883,-0.0699,1.5941,0.1747,1.605
3.887,-0.1845,1.58,0.2519,1.611
3.892,-0.3425,1.5845,0.2732,1.644
3.897,-0.3217,1.6411,0.2627,1.693
3.902,-0.2207,1.7473,0.3091,1.788
3.909,-0.1992,1.7718,0.3356,1.814
3.913,-0.3417,1.7049,0.3136,1.767
3.918,-0.6273,1.5895,0.3243,1.739
3.923,-0.8616,1.4419,0.191,1.691
3.927,-1.1021,1.3292,0.0682,1.728
3.933,-1.1779,1.2534,0.1688,1.728
3.936,-1.0006,1.2502,0.2158,1.616
3.941,-0.716,1.3146,0.1861,1.508
3.946,-0.4952,1.4111,0.1609,1.504
3.95,-0.4652,1.3937,0.1525,1.477
3.955,-0.5162,1.217,0.1992,1.337
3.96,-0.6206,0.9856,0.2011,1.182
3.965,-0.6492,0.8073,0.1505,1.047
3.971,-0.643,0.7439,0.1579,0.996
3.975,-0.657,0.8357,0.1399,1.072
3.979,-0.5788,0.9461,0.1618,1.121
3.985,-0.5425,1.0411,0.193,1.19
3.989,-0.6941,1.0277,0.1373,1.248
3.994,-0.97,0.8983,0.0902,1.325
3.999,-1.0511,0.6789,0.0032,1.251
4.004,-0.9456,0.5917,-0.0262,1.116
4.009,-0.8517,0.847,-0.0846,1.204
4.014,-0.7065,1.1267,-0.1951,1.344
4.019,-0.4301,1.2779,-0.1608,1.358
4.024,-0.1431,1.3247,-0.0045,1.332
4.028,-0.0043,1.2893,0.0519,1.29
4.033,0.0653,1.1689,0.0279,1.171
4.037,0.1941,1.0211,0.0021,1.039
4.042,0.3196,0.9867,-0.0378,1.038
4.048,0.3968,1.0039,-0.0325,1.08
4.052,0.2994,1.1467,0.0134,1.185
4.057,0.2502,1.0254,-0.0218,1.056
4.062,0.2585,0.755,0.0414,0.799
4.067,0.1854,0.498,0.0832,0.538
4.072,0.1472,0.4309,-0.0019,0.455
4.076,0.2887,0.4936,-0.0877,0.578
4.081,0.4375,0.638,-0.1838,0.795
4.086,0.377,0.8022,-0.309,0.939
4.091,0.2637,0.8691,-0.2592,0.945
4.096,0.2995,0.8412,-0.0261,0.893
4.101,0.3722,0.5727,0.1472,0.699
4.105,0.4242,0.0734,0.1862,0.469
4.11,0.1839,-0.0254,0.082,0.203
4.115,0.1394,0.2063,-0.0883,0.264
4.12,0.5125,0.1327,-0.01,0.529
4.125,0.4683,0.118,0.1304,0.5
4.129,0.234,0.1509,0.286,0.399
4.134,0.3279,-0.0267,0.4317,0.543
4.139,0.1196,-0.001,0.1209,0.17
4.144,-0.2257,-0.0899,-0.1752,0.3
4.149,0.2297,-0.1309,0.1992,0.331
4.154,0.7408,0.4033,0.1088,0.85
4.159,0.6407,0.8386,-0.3651,1.117
4.163,0.3081,0.6815,-0.495,0.897
4.168,-0.1324,-0.0245,-0.0714,0.152
4.173,1.3538,-1.2596,0.0896,1.851
4.178,-0.4957,-1.9389,0.0725,2.003
4.183,-2.4126,-0.9076,0.0652,2.578
4.188,-1.8927,-0.5645,-1.0638,2.243
4.193,-0.5152,-1.1064,-0.6875,1.401
4.199,-0.5889,-1.0303,-0.2136,1.206
4.202,-0.9947,-0.9347,0.0466,1.366
4.208,-0.9488,-0.9258,-0.1871,1.339
4.212,-0.5516,-0.8481,-0.1918,1.03
4.217,-0.2293,-0.6563,-0.2334,0.733
4.222,-0.0744,-0.7784,-0.3302,0.849
4.227,-0.1121,-1.047,-0.3161,1.099
4.231,-0.3454,-1.2947,-0.1345,1.347
4.237,-0.6055,-1.6101,0.0079,1.72
4.242,-0.7265,-1.8643,0.0192,2.001
4.247,-0.8671,-1.9496,-0.0373,2.134
4.251,-1.1234,-1.8257,-0.2027,2.153
4.257,-1.3403,-1.6338,-0.2649,2.13
4.261,-1.4276,-1.613,-0.3413,2.181
4.266,-1.3971,-1.6725,-0.4601,2.227
4.271,-1.3967,-1.7137,-0.4354,2.253
4.275,-1.4576,-1.6987,-0.6088,2.32
4.28,-1.1386,-1.8021,-0.4686,2.183
4.285,-0.978,-1.9544,-0.661,2.283
4.29,-0.9768,-2.0476,-0.542,2.333
4.297,-0.9132,-2.2256,-0.4656,2.45
4.302,-0.8018,-2.4356,-0.372,2.591
4.307,-0.8843,-2.5416,-0.345,2.713
4.312,-0.9342,-2.5654,-0.5163,2.779
4.317,-0.9915,-2.7129,-0.6666,2.964
4.32,-0.9946,-2.5747,-0.3941,2.788
4.325,-0.7469,-2.5019,-0.3565,2.635
4.329,-0.2666,-2.4651,-0.4178,2.514
4.333,-0.1543,-2.5097,-0.544,2.573
4.338,-0.1547,-2.6409,-0.4935,2.691
4.343,-0.0355,-2.8109,-0.4021,2.84
4.349,0.0551,-3.0099,-0.296,3.025
4.353,0.0845,-3.2472,-0.2443,3.257
4.358,0.1124,-3.5897,-0.1752,3.596
4.363,0.222,-3.9632,-0.0942,3.97
4.368,0.4247,-4.1644,-0.0948,4.187
4.373,0.6206,-4.2362,-0.0651,4.282
4.378,0.8284,-4.2821,-0.0162,4.361
4.382,0.9502,-4.3545,0.0117,4.457
4.387,1.0142,-4.4875,0.0359,4.601
4.392,1.1175,-4.7005,-0.1868,4.835
4.397,1.3617,-4.8461,-0.2055,5.038
4.404,1.7155,-4.7355,-0.0798,5.037
4.408,2.1881,-4.4239,-0.2399,4.941
4.415,2.5816,-4.0257,-0.4734,4.806
4.417,2.8334,-3.527,-0.6216,4.567
4.425,3.1539,-3.1117,-0.5597,4.466
4.426,3.1361,-2.785,-0.0958,4.195
4.435,3.1477,-2.2173,-0.736,3.92
4.436,2.6982,-1.6649,-0.8957,3.295
4.444,2.4877,-1.4806,-0.7545,2.992
4.446,2.088,-1.2643,-0.8387,2.581
4.455,1.7692,-1.0057,-0.9207,2.234
4.456,1.5155,-0.7119,-0.7941,1.853
4.464,1.2483,-0.3582,-0.731,1.49
4.466,0.9289,-0.0636,-0.7549,1.199
4.471,0.6046,0.2206,-0.6646,0.925
4.476,0.6993,0.5694,-0.8516,1.24
4.485,0.9851,0.8255,-0.5359,1.393
4.487,1.2887,1.0044,-0.1888,1.645
4.491,1.6077,1.2187,-0.0688,2.019
4.499,1.8279,1.5166,-0.0216,2.375
4.501,1.8216,1.663,0.1246,2.47
4.507,1.7288,1.6391,0.361,2.409
4.513,1.6569,1.6071,0.4982,2.361
4.515,1.4567,1.6242,0.3778,2.214
4.521,1.349,1.5755,0.3696,2.107
4.527,1.2925,1.5209,0.6652,2.104
4.532,1.288,1.5128,0.8066,2.144
4.535,1.3954,1.4555,0.6758,2.127
4.539,1.9093,0.8682,0.6876,2.207
4.546,1.7466,0.2244,0.8276,1.946
4.548,1.7861,-0.1012,0.9878,2.044
4.555,2.0456,0.0907,1.2421,2.395
4.559,2.3243,0.4453,1.5386,2.823
4.564,2.3652,0.4885,1.3618,2.773
4.569,2.1323,0.1844,1.0117,2.367
4.574,1.8328,0.1067,0.7776,1.994
4.579,1.7063,0.5537,0.7944,1.962
4.582,1.8214,1.286,0.6957,2.336
4.589,2.0813,1.9712,0.5381,2.917
4.593,2.1477,2.4017,0.2942,3.235
4.598,1.0251,2.9965,-0.2768,3.179
4.603,-0.285,3.6194,-0.8682,3.733
4.61,1.7768,2.7386,-0.3436,3.283
4.611,1.2409,1.7155,0.4252,2.16
4.617,-1.4154,1.6262,0.0292,2.156
4.621,-1.4178,1.8177,-0.1192,2.308
4.632,-1.0308,2.1728,0.1022,2.407
4.635,-0.9582,2.1963,0.2188,2.406
4.637,-6.0244,2.859,0.3943,6.68
4.642,-6.79,4.1263,-1.4704,8.08
4.651,-10.5719,3.5111,-0.5493,11.153
4.654,-4.4393,1.3468,-0.9135,4.728
4.655,-10.0378,3.1483,-0.8779,10.556
4.661,-2.3657,0.8862,-0.4551,2.567
4.664,-6.4165,1.3167,-0.3901,6.562
4.669,-3.3317,1.5735,-0.2482,3.693
4.674,-6.8789,2.3505,-0.705,7.303
4.679,-5.6675,3.5494,-0.7302,6.727
4.682,1.7923,1.6422,-1.1066,2.671
4.687,-4.8301,1.4771,0.4187,5.068
4.692,-3.9248,1.7975,-0.7025,4.374
4.697,-4.9652,2.0148,0.9525,5.442
4.702,-1.9892,-0.2012,-0.5988,2.087
4.707,0.1837,-1.4718,1.3428,2.001
4.713,-4.7946,0.2164,0.7631,4.86
4.716,0.3628,-0.7868,0.2847,0.912
4.722,-2.0328,1.0518,0.6591,2.382
4.727,-0.056,1.8938,0.088,1.897
4.734,-1.1792,0.8138,0.5152,1.523
4.737,5.7121,0.9977,0.9734,5.88
4.744,11.9094,-1.655,1.6646,12.138
4.751,21.617,-6.0878,7.1215,23.56
4.752,-10.514,0.023,6.8184,12.531
4.758,3.6422,-1.1586,0.3388,3.837
4.762,4.8361,0.8336,1.3801,5.098
4.773,19.2615,1.584,6.8616,20.508
4.774,-14.4194,5.448,-4.6377,16.097
4.778,0.8651,3.0753,1.8196,3.677
4.783,3.8845,-0.4397,4.0483,5.628
4.787,2.2113,0.6187,2.4534,3.36
4.789,0.9185,-0.2263,0.9005,1.306
4.794,5.9822,-0.8949,2.642,6.601
4.799,1.9485,-1.557,-0.5392,2.552
4.804,4.202,-1.7751,2.8558,5.382
4.809,-1.9063,-0.5057,-1.7371,2.628
4.814,14.049,-1.0532,4.6957,14.85
4.819,5.6218,-0.1653,-0.3919,5.638
4.824,-4.8986,0.185,-1.204,5.048
4.829,3.7906,0.127,3.9976,5.511
4.834,3.557,0.5225,0.2014,3.601
4.839,0.1094,1.9283,-1.2813,2.318
4.842,0.4449,2.8644,0.1866,2.905
4.848,0.3405,3.0401,-0.3134,3.075
4.853,0.4084,2.3125,-0.3049,2.368
4.857,0.2531,1.6551,-0.3877,1.719
4.865,-0.7612,1.321,-0.4496,1.59
4.867,-1.4271,1.0086,-0.375,1.787
4.871,-1.449,0.6891,-0.4238,1.66
4.876,-1.5223,0.5797,-0.4547,1.691
4.881,-1.7783,0.6301,-0.3692,1.922
4.886,-2.3722,0.8017,-0.3904,2.534
4.891,-2.748,0.9989,-0.4462,2.958
4.895,-2.7159,1.0902,-0.4776,2.965
4.902,-2.7153,1.2025,-0.6143,3.033
4.906,-2.8147,1.2118,-0.7979,3.167
4.913,-3.0062,1.0943,-0.8382,3.307
4.915,-2.721,0.8862,-0.5688,2.918
4.925,-2.2218,0.5994,-0.4351,2.342
4.927,-1.8525,0.3537,-0.4305,1.934
4.933,-1.4758,0.2686,-0.3809,1.548
4.937,-1.1708,0.363,-0.4927,1.321
4.941,-0.9477,0.5078,-0.953,1.437
4.95,-0.5751,0.5955,-1.0336,1.324
4.952,-0.2493,0.6476,-0.7198,1
4.959,-0.0193,0.6734,-0.6842,0.96
4.961,0.0464,0.8093,-0.7232,1.086
4.967,-0.1204,0.9211,-0.7695,1.206
4.971,-0.4789,0.887,-0.7228,1.24
4.976,-0.824,0.8146,-0.9064,1.471
4.981,-1.0721,0.8348,-1.5976,2.097
4.987,-1.4097,0.7225,-1.8024,2.4
4.991,-1.877,0.5531,-2.484,3.162
4.997,-1.3069,0.3304,-2.8684,3.169
5.002,-0.9848,0.3467,-2.6254,2.825
5.007,-1.7522,0.4838,-1.7442,2.519
5.01,-2.7809,0.3102,-0.6292,2.868
5.014,-2.6365,-0.0103,-0.3571,2.661
5.023,-2.6282,-0.372,-0.3873,2.682
5.027,-2.1414,-0.1366,-0.755,2.275
5.029,-1.8467,0.2171,-1.1034,2.162
5.033,-1.5345,0.4758,-0.8122,1.8
5.037,-1.2161,0.8349,-0.7123,1.638
5.041,-1.1819,0.7751,-0.7304,1.591
5.05,-1.3978,0.4856,-0.6426,1.613
5.052,-1.5084,0.1556,-0.5218,1.604
5.058,-1.4564,-0.26,-0.1415,1.486
5.063,-1.1745,-0.6724,0.4322,1.421
5.068,-0.5494,-0.6636,0.368,0.937
5.076,-0.3381,-0.5112,0.3983,0.731
5.077,-0.0381,-0.3087,0.4757,0.568
5.084,-0.207,-0.006,0.2898,0.356
5.086,-0.53,0.0812,0.3789,0.657
5.093,-0.7234,0.0105,0.442,0.848
5.099,-0.6867,-0.0506,0.3289,0.763
5.103,-0.8351,-0.016,0.407,0.929
5.108,-0.4605,0.0951,0.5111,0.695
5.112,-0.5428,0.3783,-0.457,0.804
5.117,-0.574,0.3916,-0.4107,0.807
5.122,-0.0229,0.563,-0.436,0.713
5.126,0.2772,0.6822,-0.5163,0.899
5.131,0.6341,0.8423,-0.3914,1.125
5.136,0.7119,1.0362,-0.0596,1.259
5.141,0.7619,1.2805,0.0426,1.491
5.147,0.7477,1.5391,-0.0847,1.713
5.151,0.6523,1.7188,-0.2417,1.854
5.157,0.6118,1.7525,-0.2858,1.878
5.163,0.5782,1.5354,-0.1632,1.649
5.165,0.3935,1.1302,0.0159,1.197
5.171,0.3589,0.7073,0.0934,0.799
5.173,0.4869,0.4221,0.0325,0.645
5.183,0.7879,0.3056,-0.1111,0.852
5.185,0.9832,0.4817,-0.2833,1.131
5.189,0.9233,0.8613,-0.3829,1.319
5.194,0.6346,1.1713,-0.4412,1.403
5.197,0.4309,1.2562,-0.5179,1.425
5.205,0.3463,1.1901,-0.6879,1.418
5.209,0.2306,1.0495,-0.8762,1.386
5.212,0.1098,0.8438,-0.989,1.305
5.219,0.0718,0.6088,-0.8994,1.088
5.222,0.1398,0.3016,-0.6959,0.771
5.229,0.1748,-0.0779,-0.5823,0.613
5.232,0.2202,-0.3836,-0.4518,0.632
5.24,0.1806,-0.52,-0.3123,0.633
5.241,0.0684,-0.5661,-0.1473,0.589
5.252,0.0916,-0.6724,0.0858,0.684
5.254,0.1529,-0.9033,0.3143,0.969
5.257,0.2591,-1.2561,0.3914,1.341
5.262,0.3193,-1.63,0.5047,1.736
5.268,0.2732,-1.9413,0.6579,2.068
5.27,0.2212,-2.111,0.7979,2.268
5.278,0.2733,-2.2014,1.0436,2.452
5.279,0.355,-2.4159,1.2155,2.728
5.287,0.3755,-2.7899,1.364,3.128
5.29,0.4155,-3.173,1.4583,3.517
5.295,0.4416,-3.4505,1.4752,3.778
5.3,0.3391,-3.5723,1.5014,3.89
5.305,0.2034,-3.6536,1.535,3.968
5.311,0.1246,-3.7351,1.5478,4.045
5.316,0.1071,-3.805,1.5453,4.108
5.32,0.1053,-3.8132,1.4965,4.098
5.329,0.0285,-3.8027,1.6238,4.135
5.331,-0.1378,-3.8524,1.6856,4.207
5.336,-0.3151,-4.0053,1.6364,4.338
5.34,-0.4205,-4.2492,1.5238,4.534
5.344,-0.4257,-4.424,1.5558,4.709
5.35,-0.448,-4.415,1.4982,4.684
5.354,-0.4614,-4.263,1.421,4.517
5.359,-0.5963,-3.9538,1.2622,4.193
5.363,-0.7015,-3.4972,1.1152,3.737
5.368,-0.7164,-2.9576,0.9442,3.186
5.374,-0.7621,-2.3949,0.6697,2.601
5.378,-1.0442,-1.8351,0.4586,2.161
5.382,-1.0514,-1.4143,0.286,1.785
5.39,-1.305,-1.2519,0.3235,1.837
5.392,-2.0709,-1.8924,0.6486,2.879
5.397,-1.1369,-1.5474,-0.0542,1.921
5.402,-0.295,-1.1093,0.0197,1.148
5.407,-0.008,-1.46,1.104,1.83
5.412,-0.0686,-1.5932,1.9345,2.507
5.418,0.1879,-0.8619,0.6165,1.076
5.421,0.9052,0.869,0.0894,1.258
5.426,0.7574,2.5775,-0.0107,2.686
5.431,0.6815,3.5824,0.0857,3.648
5.437,1.015,4.3005,0.1945,4.423
5.441,1.3244,4.7977,0.204,4.981
5.446,1.0797,5.4382,-0.0465,5.545
5.45,0.5851,5.7183,-0.978,5.831
5.456,-0.0022,5.4261,-1.8183,5.723
5.462,-0.3173,4.6389,-2.4467,5.254
5.464,-0.5873,3.4766,-2.8716,4.547
5.47,-1.2066,2.4602,-3.6376,4.554
5.475,-1.7219,1.8091,-4.9166,5.515
5.48,-1.9984,1.391,-5.0985,5.65
5.484,-1.8137,1.0667,-3.5281,4.108
5.488,-1.1913,0.8359,-2.0847,2.542
5.494,-0.6942,0.6125,-1.6815,1.92
5.499,-0.689,0.4013,-1.66,1.842
5.503,-0.7227,0.1378,-1.6767,1.831
5.508,-0.6773,-0.3165,-1.7026,1.859
5.513,-0.6862,-0.7654,-1.5896,1.893
5.52,-0.5032,-1.2185,-1.3105,1.859
5.522,-0.2668,-1.5922,-1.0611,1.932
5.528,-0.218,-1.7313,-0.744,1.897
5.532,-0.1322,-1.7364,-0.5659,1.831
5.538,-0.0816,-1.5001,-0.5237,1.591
5.542,0.0262,-1.1494,-0.3723,1.208
5.548,0.1339,-0.8326,-0.3563,0.915
5.552,0.2565,-0.6214,-0.1452,0.688
5.559,0.4182,-0.518,0.0011,0.666
5.562,0.3852,-0.4005,0.0667,0.56
5.569,0.2909,-0.2496,0.1351,0.406
5.571,0.2836,-0.0655,0.151,0.328
5.577,0.4585,-0.0585,1.1275,1.219
5.582,0.481,-0.1591,-0.2063,0.547
5.588,0.789,-0.2667,0.8929,1.221
5.591,1.189,-0.0301,0.1851,1.204
5.598,1.1864,0.2826,-0.7074,1.41
5.599,1.3078,0.5209,0.1536,1.416
5.606,1.6695,0.3764,0.9811,1.973
5.61,1.7314,0.0697,0.714,1.874
5.617,3.4907,-0.7338,4.0675,5.41
5.619,0.8555,-0.4514,-0.9218,1.336
5.624,-0.6059,-0.0856,-1.1184,1.275
5.632,-0.5447,0.1603,0.0575,0.571
5.635,0.0053,0.1958,0.1024,0.221
5.639,0.2181,0.0138,-0.2045,0.299
5.654,0.2778,-0.0341,-0.3678,0.462
5.656,0.2775,0.0735,-0.4014,0.493
5.661,0.4397,0.0996,-0.2098,0.497
5.662,0.3826,-0.0678,-0.0876,0.398
5.668,0.0372,-0.3594,0.1136,0.379
5.669,-0.0398,-0.66,0.2027,0.692
5.67,0.1654,-0.6975,0.2231,0.751
5.675,0.2255,-0.5938,0.0105,0.635
5.68,0.2942,-0.5095,0.0075,0.588
5.685,0.0986,-0.4993,-0.0915,0.517
5.7,0.0023,-0.5584,-0.1021,0.568
5.701,0.0093,-0.6389,0.071,0.643
5.702,0.1318,-0.6619,0.1051,0.683
5.706,-0.0415,-0.5965,0.0209,0.598
5.711,-0.2147,-0.5215,0.0137,0.564
5.717,-0.3372,-0.5159,-0.0749,0.621
5.72,-0.0463,-0.6107,0.1213,0.624
5.725,0.0316,-0.6098,0.0647,0.614
5.734,-0.0245,-0.6567,0.1933,0.685
5.737,-0.6095,-0.541,0.0196,0.815
5.742,-0.4745,-0.9609,0.1603,1.084
5.746,-0.4177,-1.1557,0.4237,1.3
5.75,-0.7417,-0.8698,0.3839,1.206
5.758,-0.5639,-0.57,0.5403,0.967
5.758,-0.4095,-0.2228,0.4359,0.638
5.764,-0.1492,0.1408,0.5773,0.613
5.771,-0.1518,0.1694,0.5076,0.556
5.775,0.3942,0.0331,0.6213,0.737
5.78,0.2294,-0.0217,0.0266,0.232
5.788,0.4491,-0.0621,0.1365,0.473
5.79,1.1151,-0.1931,0.5821,1.273
5.795,-0.3879,0.1994,-0.0774,0.443
5.8,-0.5098,-0.1231,0.0354,0.526
5.806,-1.4645,-0.2516,0.0377,1.486
5.81,-2.5281,-0.1123,-0.1277,2.534
5.815,-3.077,0.151,-0.7504,3.171
5.821,-3.4337,0.4474,-0.9994,3.604
5.825,-3.5634,0.6502,-1.0922,3.783
5.831,-3.7359,0.6662,-1.0501,3.937
5.834,-3.624,0.2712,-0.9927,3.767
5.84,-3.5619,0.1443,-0.846,3.664
5.844,-3.0766,-0.0924,-0.6675,3.15
5.85,-2.1036,-0.3553,-0.191,2.142
5.853,-1.1559,-0.4028,0.9018,1.52
5.859,-2.1021,0.0469,-0.8,2.25
5.863,-1.6749,-0.1016,-0.1073,1.681
5.869,-1.0634,-0.2308,-0.019,1.088
5.872,-0.7737,-0.183,0.0519,0.797
5.879,-0.5781,-0.1161,0.0132,0.59
5.882,-0.3378,-0.1688,-0.0793,0.386
5.888,-0.2988,-0.1951,-0.2477,0.434
5.892,-0.1641,-0.2501,-0.1628,0.341
5.898,-0.2684,-0.2715,-0.2174,0.439
5.902,0.0151,-0.3718,-0.0936,0.384
5.911,-0.3158,-0.5628,-0.2048,0.677
5.913,0.0346,-0.4691,0.047,0.473
5.917,0.1789,-0.2751,-0.0529,0.332
5.921,0.2395,-0.0528,-0.0309,0.247
5.926,0.1946,0.1096,-0.0713,0.234
5.931,0.2474,0.1666,-0.0474,0.302
5.935,0.5008,0.0133,0.017,0.501
5.94,0.6326,-0.0681,0.0817,0.642
5.946,0.9568,-0.0395,0.223,0.983
5.951,1.2637,0.0154,0.3306,1.306
5.954,1.2,0.1515,0.2705,1.239
5.96,1.5666,0.0939,0.5068,1.649
5.964,0.8571,0.2203,0.3536,0.953
5.971,1.1227,-0.2866,0.6626,1.335
5.976,-16.7854,2.4381,-7.0916,18.384
5.98,-6.1833,-0.0574,-2.7101,6.751
5.983,-2.3646,-1.1183,0.6291,2.69
5.989,-3.477,-1.4705,0.1154,3.777
5.997,-2.938,-1.8152,-0.001,3.453
6,-1.9257,-1.1916,0.6042,2.344
6.003,-1.581,-0.2818,0.1945,1.618
6.01,1.6792,-0.1569,1.1469,2.039
6.013,1.3504,0.3098,0.2526,1.408
6.02,0.6262,0.3913,0.2443,0.778
6.021,0.7788,0.5062,0.1083,0.935
6.028,2.6299,0.0881,1.1799,2.884
6.032,2.3177,0.0337,1.0872,2.56
6.039,2.7678,-0.0733,0.7707,2.874
6.043,3.7762,0.0659,1.3851,4.023
6.049,7.3967,-0.6198,2.7465,7.914
6.051,3.306,0.0596,0.8066,3.404
6.057,5.3931,-1.4224,2.2733,6.023
6.061,2.7165,-0.8809,0.759,2.955
6.067,-0.5174,-0.3449,-0.829,1.036
6.074,2.6416,-0.4905,0.0773,2.688
6.077,-0.5257,-0.0672,-1.3224,1.425
6.08,1.9211,-1.6757,-0.0869,2.551
6.087,3.7572,-2.0444,0.9029,4.372
6.091,2.0384,-2.0281,0.6781,2.954
6.096,-4.4206,0.7173,-2.6017,5.179
6.102,-3.4418,1.2968,-3.3093,4.948
7.037,-3.4325,1.2951,-3.3023,4.936
7.04,-1.9115,1.1955,-2.0999,3.081
7.042,-1.778,0.575,-1.1516,2.195
7.043,-2.0355,0.1297,-0.4621,2.091
7.046,-1.6528,-0.002,0.243,1.671
7.047,-0.6869,0.1127,0.869,1.113
7.048,0.0448,0.2797,1.216,1.249
7.051,0.7011,0.363,1.4533,1.654
7.052,1.8909,0.152,1.796,2.612
7.055,2.3934,0.0082,2.091,3.178
7.056,2.5153,-0.1212,1.9867,3.208
7.059,2.2875,-0.1883,1.5737,2.783
7.061,1.6901,-0.0307,0.8711,1.902
7.062,1.0089,0.0741,0.1604,1.024
7.064,0.4845,0.1549,-0.4785,0.698
7.066,-0.5276,0.1784,-0.9485,1.1
7.066,-1.247,-0.0443,-0.846,1.508
7.067,-2.2512,-0.2356,-1.2571,2.589
7.068,-5.1593,-0.264,-2.3479,5.675
7.068,2.1815,-1.6786,1.5884,3.178
7.069,0.1192,-0.8115,0.8361,1.171
7.069,-1.52,-0.1319,-0.2809,1.551
7.07,-0.9624,-0.0362,0.0807,0.966
7.071,-0.2698,-0.0003,0.3943,0.478
7.071,-0.2907,-0.0266,0.3406,0.449
7.071,-0.3044,-0.0887,0.2988,0.436
7.072,-0.2936,-0.1029,0.2563,0.403
7.072,-0.2869,-0.0262,0.12,0.312
7.072,-0.4403,0.0623,0.0073,0.445
7.073,-0.4433,0.0838,-0.1292,0.469
7.073,-0.4442,-0.0191,-0.1629,0.474
7.073,-0.3881,-0.1408,-0.0868,0.422
7.074,-0.5766,-0.2386,0.0055,0.624
7.074,-2.9436,0.4022,-1.6317,3.39
7.076,-9.0947,2.1055,-3.2451,9.883
7.077,-4.5933,0.3199,-2.7363,5.356
7.077,0.14,-0.498,1.0885,1.205
7.078,-0.4562,-1.1476,1.4852,1.932
7.078,-2.795,-0.8954,0.0351,2.935
7.079,1.3625,-1.0115,2.4679,2.995
7.079,0.1174,0.0724,0.4806,0.5
7.079,1.097,0.7176,0.6244,1.452
7.08,0.7635,0.9318,0.1372,1.212
7.081,2.1673,0.1301,0.831,2.325
7.081,1.0069,-0.4005,0.7728,1.331
7.082,-0.4134,-0.5147,-0.068,0.664
7.082,0.046,-0.5761,-0.6465,0.867
7.083,1.5431,-0.7332,1.4408,2.235
7.083,0.9067,-0.4598,0.0718,1.019
7.083,0.546,-0.0721,-0.3563,0.656
7.083,-0.3075,0.3414,-0.7631,0.891
7.084,2.7057,-0.5075,1.2739,3.033
7.084,3.9371,-1.3505,2.4171,4.813
7.085,-3.9496,0.7949,-3.1871,5.137
7.086,0.3368,-0.2003,0.4541,0.6
7.086,3.8688,-0.941,1.6368,4.305
7.086,11.7827,-3.7647,8.21,14.846
7.087,-10.0561,2.0927,-5.0403,11.442
7.088,11.3599,-2.3933,5.4572,12.828
7.089,-2.4056,0.4178,-2.1294,3.24
7.089,-5.8399,1.0411,-3.905,7.102
7.09,-3.6322,0.7842,-2.5324,4.497
7.09,-3.3842,0.2575,-0.6003,3.447
7.091,-3.0562,-0.4597,-2.1854,3.785
7.091,-3.2139,-0.0745,-0.8222,3.318
7.091,-2.4693,-0.2394,-0.0439,2.481
7.092,-1.3747,-0.3778,0.3862,1.477
7.092,-0.4433,-0.2627,1.0157,1.139
7.092,0.2516,-0.0449,1.3749,1.398
7.093,0.6893,-0.0496,1.1724,1.361
7.093,0.696,0.0772,0.843,1.096
7.093,0.5662,0.1273,0.5245,0.782
7.093,0.3335,-0.0043,0.2329,0.407
7.094,0.2133,-0.1882,-0.0206,0.285
7.094,0.153,-0.3625,-0.1982,0.441
7.094,0.3414,-0.5365,-0.1899,0.664
7.095,0.4936,-0.6051,-0.1631,0.798
7.095,0.5185,-0.6187,-0.1417,0.82
7.095,0.5259,-0.575,-0.1228,0.789
7.096,0.4484,-0.5121,0.1139,0.69
7.096,0.4389,-0.478,0.3156,0.722
7.096,0.4494,-0.4989,0.5185,0.848
7.097,0.2786,-0.5244,0.4857,0.767
7.097,-0.1123,0.1001,0.3316,0.364
7.097,-0.0538,0.2435,0.362,0.44
7.098,-0.1033,0.3126,0.1961,0.383
7.098,-0.254,0.4868,0.1158,0.561
7.098,-0.336,0.527,0.1638,0.646
7.098,-0.3208,0.4476,0.1705,0.576
7.099,-0.304,0.4041,0.1863,0.539
7.099,-0.3144,0.3799,0.2186,0.539
7.099,-0.2227,0.3126,0.1717,0.42
7.1,-0.1111,0.2525,0.1677,0.323
7.1,-6.2772,1.7888,-4.6891,8.037
7.101,1.9292,-0.2997,3.149,3.705
7.101,4.5332,-1.7761,2.8186,5.626
7.102,-1.7933,-0.1942,-0.5807,1.895
7.102,-6.5435,1.4692,-3.8943,7.755
7.103,1.2843,-0.6668,1.7377,2.261
7.103,5.1163,-2.0711,3.8598,6.735
7.104,-3.3431,-0.0181,-1.9561,3.873
7.104,-2.6451,0.1181,-1.3942,2.992
7.105,3.6805,-1.4999,2.7679,4.843
7.106,1.9506,-1.1563,-0.1897,2.275
7.106,-1.0405,0.0569,0.144,1.052
7.106,0.7435,-0.8751,1.732,2.078
7.107,1.7294,-1.1797,0.7384,2.22
7.107,0.7768,-0.3129,-0.3169,0.895
7.107,-0.0049,0.0533,-0.2166,0.223
7.107,-0.1453,-0.2452,0.1447,0.32
7.107,0.2765,-0.3498,0.1709,0.478
7.108,0.522,-0.1723,0.091,0.557
7.108,0.6086,-0.112,0.067,0.622
7.108,0.3328,-0.09,0.2042,0.401
7.108,0.2826,-0.1612,0.523,0.616
7.109,0.2637,-0.0722,0.4358,0.514
7.109,-4.6373,1.4478,-4.6884,6.751
7.109,-13.6447,3.0993,-6.3428,15.363
7.11,7.0735,-2.1264,8.5127,11.27
7.111,-0.8086,-1.2516,-2.372,2.801
7.111,-3.8979,0.1286,1.5885,4.211
7.111,-0.5937,-0.5315,0.413,0.898
7.112,0.8939,0.0138,2.0105,2.2
7.112,8.3819,-1.3339,6.5389,10.714
7.112,4.1735,-0.199,-1.5752,4.465
7.113,-2.8381,1.7612,-0.2967,3.353
7.113,1.619,-0.2576,1.9167,2.522
7.114,2.2333,-1.0812,0.1297,2.485
7.114,1.7001,-0.986,0.1336,1.97
7.115,-3.0604,0.2369,-3.3866,4.571
7.115,-7.2359,0.4758,-1.7891,7.469
7.116,4.2512,-2.0167,5.8506,7.508
7.116,4.0542,-1.7887,0.9509,4.532
7.116,-1.6522,0.7521,-1.4842,2.345
7.117,-0.0128,1.3992,0.1284,1.405
7.117,-5.7756,1.0655,-3.1665,6.672
7.117,5.0898,0.276,3.6628,6.277
7.118,-1.0333,0.0251,-1.3101,1.669
7.118,-0.0162,-0.0916,0.1733,0.197
7.118,-2.2461,0.4704,-0.0433,2.295
7.119,-1.7741,0.157,0.1359,1.786
7.119,-1.3558,-0.0269,0.1792,1.368
7.119,-1.4531,-0.3087,0.2203,1.502
7.12,-1.64,-0.5209,0.1082,1.724
7.121,-1.0861,-0.5106,0.5643,1.326
7.121,-0.5683,-0.3665,0.4813,0.83
7.122,-0.3259,-0.1938,0.2596,0.46
7.122,0.0382,-0.1385,0.2943,0.328
7.122,0.2397,-0.1238,0.217,0.346
7.122,0.2714,-0.0972,0.1708,0.335
7.122,0.1217,-0.1112,0.1314,0.211
7.123,0.0175,-0.099,0.1395,0.172
7.123,0.1047,-0.0485,0.1923,0.224
7.123,0.1373,-0.0267,0.2139,0.256
7.124,0.104,-0.036,0.2546,0.277
7.124,-0.1149,0.0647,0.2741,0.304
7.124,0.0158,0.0458,0.3224,0.326
7.124,1.6693,-0.5606,0.7424,1.911
7.125,1.0546,0.0287,0.0316,1.055
7.126,-0.943,0.6005,0.5594,1.25
7.126,-0.4269,0.0578,0.0063,0.431
7.126,-0.5935,0.0416,0.2548,0.647
7.127,-0.9307,0.0803,0.2402,0.965
7.127,-1.3174,0.0208,0.2639,1.344
7.127,-1.6565,-0.0339,0.3688,1.697
7.127,-1.6447,-0.0243,0.5383,1.731
7.127,-1.2099,0.0114,0.457,1.293
7.127,-1.0897,-0.027,0.2713,1.123
7.128,-0.4962,-0.4262,-0.0122,0.654
7.128,-0.4527,-0.4617,-0.2931,0.71
7.128,-0.438,-0.3418,-0.1552,0.577
7.128,-0.2725,-0.1623,-0.034,0.319
7.128,-0.9898,-0.0714,-0.5977,1.158
7.128,-1.2698,-0.1791,-0.3189,1.321
7.129,-0.8979,-0.258,0.0146,0.934
7.129,-2.1282,-0.184,-1.0877,2.397
7.129,-2.4716,-0.0912,-0.3693,2.501
7.129,-1.6215,-0.1229,0.0014,1.626
7.129,-1.362,-0.1307,-0.2526,1.391
7.13,-1.1757,0.0144,-0.0786,1.178
7.13,-0.8376,0.1498,-0.0451,0.852
7.13,-0.7896,0.2539,-0.1276,0.839
7.13,-0.8069,0.2527,-0.1198,0.854
7.13,-0.8244,0.2517,-0.1104,0.869
7.13,-0.8412,0.2506,-0.1004,0.883
7.13,-0.8572,0.2497,-0.0906,0.897
7.131,-0.8718,0.2489,-0.0812,0.91
7.131,-0.8854,0.2481,-0.0716,0.922
7.131,-0.8974,0.2474,-0.0617,0.933
7.131,-0.9067,0.2469,-0.0526,0.941
7.131,-0.9153,0.2464,-0.0432,0.949
7.131,-0.9229,0.2459,-0.0339,0.956
7.132,-0.9293,0.2455,-0.0253,0.962
7.132,0.3627,0.0133,-0.1634,0.398
7.132,0.1862,-0.0441,-0.2185,0.29
7.132,0.0256,-0.135,-0.2515,0.287
7.132,0.0611,-0.1779,-0.2276,0.295
7.132,0.5674,-0.302,0.08,0.648
7.133,0.6224,-0.3663,-0.0106,0.722
7.133,0.1861,-0.3372,-0.1499,0.413
7.133,0.6969,-0.4539,0.21,0.858
7.133,1.1655,-0.5848,0.3945,1.362
7.133,0.7632,-0.5244,0.1813,0.944
7.133,0.5325,-0.452,0.0445,0.7
7.134,0.4871,-0.4418,0.0008,0.658
7.134,0.4596,-0.3981,-0.1029,0.617
7.134,0.2683,-0.3186,-0.1998,0.462
7.134,0.1497,-0.2894,-0.2112,0.388
7.134,-0.102,-0.2316,-0.2615,0.364
7.134,-0.2289,-0.1882,-0.2287,0.374
7.135,-0.3416,-0.152,-0.2299,0.439
7.135,-0.3304,-0.1374,-0.1382,0.384
7.135,-0.2552,-0.1563,-0.0829,0.311
7.135,-0.0921,-0.1489,-0.1022,0.203
7.141,0.0632,-0.0627,-0.0069,0.089
7.146,0.2518,-0.0865,0.1002,0.284
7.151,0.3639,-0.17,0.1426,0.426
7.153,0.6963,-0.2487,0.2641,0.785
7.161,0.862,-0.2602,0.2012,0.923
7.164,0.6705,-0.1738,0.014,0.693
7.171,-3.9053,0.1947,-4.4362,5.913
7.174,-3.5883,0.5146,0.0132,3.625
7.182,9.4757,-1.6776,7.6506,12.294
7.186,0.7302,-0.9393,-3.383,3.586
7.189,-4.4699,0.761,-1.58,4.802
7.196,0.2055,0.1386,0.4232,0.49
7.199,0.885,-0.4304,-0.1512,0.996
7.202,0.0497,-0.1358,0.022,0.146
7.212,-0.4135,-0.0231,-0.3078,0.516
7.213,-0.7743,0.0081,-0.3929,0.868
7.222,-0.6727,0.0869,-0.2065,0.709
7.223,-0.5232,0.3209,0.0057,0.614
7.228,-0.2105,0.1864,-0.0454,0.285
7.233,-0.1818,-0.1177,0.1459,0.261
7.238,-0.4434,-0.0534,0.3146,0.546
7.243,-0.3304,-0.1637,0.3145,0.485
7.252,-0.418,-0.1614,0.2317,0.505
7.254,-0.6095,-0.1018,0.0875,0.624
7.259,-0.694,-0.0971,-0.0158,0.701
7.262,-0.8379,-0.0708,-0.0999,0.847
7.268,-0.8096,0.0319,-0.1701,0.828
7.272,-0.5185,0.0055,-0.1379,0.537
7.278,-0.3141,0.058,-0.051,0.323
7.283,-0.189,0.1296,-0.0001,0.229
7.287,0.0605,0.0958,0.0911,0.145
7.294,1.2643,-0.4397,0.283,1.368
7.297,-0.1806,0.2134,0.0144,0.28
7.302,-0.7282,0.3446,0.1766,0.825
7.307,-0.1559,-0.0979,-0.0608,0.194
7.312,-0.1557,-0.1361,0.0148,0.207
7.317,-0.3111,-0.1001,0.0283,0.328
7.321,0.0211,-0.2696,0.1925,0.332
7.328,1.5783,-0.6612,0.3501,1.747
7.331,0.0522,0.1643,0.2384,0.294
7.336,0.1387,0.15,0.1583,0.258
7.342,0.5688,-0.1607,0.0494,0.593
7.345,0.354,-0.177,0.2037,0.445
7.351,0.0799,-0.1526,0.1525,0.23
7.357,0.0377,-0.2024,0.075,0.219
7.36,-0.1409,-0.1613,-0.0146,0.215
7.366,-0.1573,-0.1417,0.0078,0.212
7.37,-0.2411,-0.1772,0.0469,0.303
7.376,-0.3897,-0.2031,0.184,0.476
7.38,-0.3858,-0.2792,0.144,0.497
7.384,-0.2678,-0.2931,0.1998,0.444
7.391,-0.0689,-0.2185,0.1026,0.251
7.394,0.1035,-0.1225,0.0892,0.183
7.4,0.2235,-0.0648,0.0781,0.245
7.404,0.2674,-0.11,0.134,0.319
7.411,0.1829,-0.1646,0.0845,0.26
7.415,-18.0565,-1.3209,-19.0231,26.261
7.42,-13.7122,0.7307,3.6985,14.221
7.424,-0.2558,-2.9827,5.6664,6.409
7.429,6.375,-5.4796,5.0539,9.809
7.433,15.0037,-3.6045,14.3871,21.097
7.44,0.6003,-1.0631,-8.961,9.044
7.443,-2.9427,2.7032,1.4183,4.24
7.449,5.4013,3.3991,2.6271,6.901
7.453,8.6408,3.0768,0.5481,9.189
7.458,-11.2457,3.5943,-9.8697,15.388
7.464,-5.3777,1.0976,-0.9018,5.562
7.468,23.5729,-3.1261,23.8988,33.714
7.472,1.4715,0.2289,-7.1443,7.298
7.478,-4.9945,2.4849,-3.643,6.663
7.483,-8.6452,2.4244,-12.5312,15.416
7.488,10.1592,0.696,18.4573,21.08
7.492,6.3202,5.4633,2.0536,8.603
7.496,-10.0169,-1.2752,-10.7768,14.768
7.501,9.4446,0.8559,8.5639,12.778
7.508,-0.741,-0.5743,-6.0611,6.133
7.511,0.6066,-1.9383,-1.5055,2.528
7.516,-6.3764,-3.7427,-0.5571,7.415
7.52,4.8128,-0.4161,6.4112,8.027
7.525,-4.6803,-0.3246,-5.0606,6.901
7.53,-1.4877,-0.8358,-0.6835,1.838
7.536,-1.3215,-0.7824,-0.5629,1.636
7.539,-1.8234,-1.2309,-0.6712,2.3
7.544,-2.023,-1.3969,-0.1989,2.466
7.55,-2.8553,-1.4455,-0.6095,3.258
7.554,-3.2576,-1.3388,-0.5418,3.563
7.562,-3.197,-1.0674,-0.0258,3.371
7.564,-2.7851,-0.8298,0.1238,2.909
7.57,-2.29,-0.6235,-0.0495,2.374
7.573,-2.0421,-0.3243,-0.0655,2.069
7.579,-1.9466,0.0703,-0.0781,1.949
7.584,-1.2377,-0.1714,0.0008,1.249
7.589,-0.8658,-0.2742,0.1252,0.917
7.592,-0.7416,-0.1474,0.1885,0.779
7.603,-0.566,0.0631,0.3081,0.647
7.605,-0.3171,0.2064,0.4097,0.558
7.611,-0.0612,0.2492,0.2995,0.394
7.612,0.1759,0.3159,0.2615,0.446
7.617,0.4708,0.385,0.4102,0.734
7.624,0.4991,0.3633,0.2884,0.681
7.629,0.3594,0.2746,0.1521,0.477
7.631,0.2977,0.1813,0.1519,0.38
12.31,0.2828,0.1814,0.1565,0.371
12.311,0.4232,0.1193,0.1762,0.474
12.311,0.6183,0.0885,0.2296,0.665
12.311,0.6792,0.0385,0.2711,0.732
12.312,0.6584,-0.0521,0.2959,0.724
12.312,0.5637,-0.1521,0.2194,0.624
12.312,0.4348,-0.178,0.064,0.474
12.313,0.3265,-0.1512,-0.0844,0.37
12.313,0.1501,-0.1461,-0.1755,0.273
12.314,-0.0182,-0.1123,-0.2427,0.268
12.314,-0.1763,-0.1263,-0.2477,0.329
12.315,-0.3462,-0.1355,-0.2859,0.469
12.315,-0.5305,-0.1088,-0.3427,0.641
12.315,-0.7367,-0.0296,-0.4301,0.854
12.315,-0.8811,0.1021,-0.5243,1.03
12.316,-1.0762,0.2385,-0.599,1.255
12.316,-1.025,0.3747,-0.4845,1.194
12.316,-0.7436,0.4869,-0.2841,0.933
12.317,-0.7655,0.575,-0.5616,1.11
12.317,-1.0789,0.7491,-0.8861,1.584
12.317,-0.5617,0.9086,-0.4046,1.142
12.318,-0.3544,0.8695,-0.5999,1.114
12.318,-0.7324,0.7779,-0.9242,1.413
12.318,-0.6549,0.5789,-0.5694,1.043
12.318,-0.2148,0.1841,-0.1915,0.342
12.318,0.0306,-0.3178,-0.1301,0.345
12.319,-0.4405,-0.733,-0.6068,1.049
12.319,-0.7655,-1.1668,-0.5612,1.504
12.319,-0.7109,-1.7194,-0.2302,1.875
12.32,-0.2313,-2.312,0.4359,2.364
12.32,0.6782,-2.801,1.1224,3.093
12.32,1.1902,-3.2202,1.0153,3.58
12.321,1.3021,-3.4812,0.7131,3.785
12.321,1.5471,-3.5723,0.7642,3.967
12.321,1.7863,-3.6657,0.7717,4.15
12.321,2.0297,-3.778,0.9318,4.389
12.322,2.3087,-3.8425,1.1697,4.633
12.322,2.4894,-3.8664,1.3967,4.806
12.323,2.4613,-3.7516,1.5867,4.759
12.323,2.6977,-3.4912,1.9214,4.812
12.324,2.8229,-3.0926,1.9062,4.601
12.325,2.875,-2.5774,1.9335,4.318
12.326,3.1217,-1.8502,1.941,4.115
12.326,3.2488,-0.9805,1.7183,3.804
12.326,-4.229,-0.5848,-8.4676,9.483
12.327,-1.5154,0.5326,6.778,6.966
12.327,11.6558,0.2214,10.328,15.575
12.328,3.822,0.0153,-4.6953,6.054
12.329,-1.2941,2.0416,-3.0121,3.862
12.329,1.5024,3.3369,0.5583,3.702
12.329,3.293,2.8311,0.7889,4.414
12.33,3.4846,2.2615,0.654,4.205
12.33,1.8958,1.9196,0.1044,2.7
12.33,1.6045,1.3939,-0.5478,2.195
12.33,1.5579,0.9667,-0.9925,2.085
12.331,-4.8288,0.1913,-6.2683,7.915
12.331,5.8919,0.186,7.7935,9.772
12.331,0.3854,-0.2567,-1.8381,1.896
12.332,-7.5203,0.2576,-8.5916,11.421
12.332,-0.6927,0.0978,7.0103,7.045
12.332,4.9819,-0.7408,5.2271,7.259
12.333,0.6806,0.221,-1.9574,2.084
12.333,-4.9637,1.4496,-5.8292,7.792
12.333,-4.2502,1.8287,-3.2566,5.658
12.334,6.9407,1.7363,6.6251,9.751
12.334,-1.3509,1.4242,-3.7392,4.223
12.335,-4.8654,1.3493,-6.4178,8.166
12.335,-4.9078,1.5495,-3.4907,6.219
12.336,7.7979,1.7158,9.9922,12.79
12.336,-3.4519,2.0657,-5.2898,6.646
12.336,2.4826,3.8083,0.8715,4.629
12.337,-0.9489,4.5354,-3.3043,5.691
12.338,0.9307,3.6891,-0.9747,3.928
12.338,-5.4295,2.6507,-8.6666,10.565
12.338,-4.3408,1.5898,3.3442,5.706
12.338,6.037,0.2521,8.4083,10.354
12.338,6.2996,1.0901,2.2926,6.792
12.339,-4.8119,3.1605,-7.0086,9.07
12.339,-3.8497,4.3778,-2.2497,6.249
12.339,0.7275,2.1713,1.9594,3.014
12.339,-5.7707,-0.41,-5.5786,8.037
12.339,-2.0748,-0.6963,5.0327,5.488
12.34,2.991,-1.2933,6.0947,6.911
12.34,2.8458,-0.8336,2.4649,3.856
12.34,-11.8445,-0.5533,-7.6301,14.1
12.34,-0.3202,0.2337,6.0723,6.085
12.34,-0.892,-1.3055,0.8353,1.788
12.341,-4.04,-1.8342,-0.6643,4.486
12.341,-5.6621,-2.9907,2.7565,6.971
12.341,2.9158,-2.43,3.6079,5.237
12.341,-6.6105,-2.3337,-0.1991,7.013
12.341,3.1476,-1.1958,3.9054,5.156
12.342,-3.1842,-0.6926,-1.964,3.805
12.342,-3.5928,-0.6082,-0.3881,3.665
12.342,-1.3203,-0.7602,1.97,2.49
12.342,-9.0343,-1.8128,-2.6189,9.579
12.342,1.0801,-1.9561,3.3971,4.066
12.342,2.1528,-1.49,6.3295,6.85
12.343,-2.6237,-0.4869,-3.179,4.151
12.343,-2.1605,0.9116,0.102,2.347
12.343,-1.6975,0.7862,0.1399,1.876
12.343,-0.9127,0.1306,0.756,1.192
12.343,-0.5446,-0.5241,0.9094,1.182
12.343,-1.0617,-0.6975,0.1095,1.275
12.343,-2.1836,-0.5815,-1.0791,2.504
12.344,2.7498,-0.2817,3.6007,4.539
12.344,0.7218,-0.2668,-0.7673,1.087
12.344,-1.4159,0.0898,-1.7393,2.244
12.344,-0.8409,-0.0128,-0.5296,0.994
12.344,-0.1147,-0.7485,0.2683,0.803
12.344,-0.1715,-1.2492,-0.1132,1.266
12.344,-0.4829,-1.41,-0.1676,1.5
12.344,-0.7787,-1.4368,-0.309,1.663
12.345,-1.0925,-1.3418,-0.4464,1.787
12.345,-1.3868,-1.2445,-0.4427,1.915
12.345,-7.091,-1.3239,-4.4606,8.481
12.345,3.1918,-1.4513,5.5916,6.6
12.345,-1.4386,-1.6933,-2.118,3.07
12.346,-3.5051,-0.9911,-2.1217,4.215
12.346,-2.6904,-0.2658,-0.6792,2.788
12.346,-1.4241,-0.4567,0.3059,1.527
12.346,-1.3537,-0.3916,-0.1494,1.417
12.346,-1.7546,0.1751,-0.5218,1.839
12.346,-1.8825,0.6933,-0.6899,2.121
12.346,-10.9831,0.8863,-12.089,16.357
12.347,-2.6461,0.3412,6.6443,7.16
12.347,6.4553,-0.1177,9.6848,11.64
12.348,0.7602,0.5559,-1.7628,1.999
12.348,-4.7261,1.9671,-5.934,7.837
12.348,-2.4374,3.389,-0.8262,4.255
12.348,1.2561,2.6467,2.2874,3.717
12.348,1.7726,2.1659,1.291,3.082
12.349,1.3407,2.2637,0.5612,2.69
12.349,-0.3167,2.9754,-2.5087,3.905
12.349,0.5527,2.2452,2.2807,3.248
12.349,4.8422,2.412,4.5895,7.094
12.349,-1.5462,2.9444,-5.3488,6.298
12.349,0.2153,2.4344,3.2224,4.044
12.35,4.5175,2.0084,2.9767,5.771
12.35,0.334,1.6904,-1.4957,2.282
12.35,0.9284,0.9403,-0.4129,1.384
12.35,1.1167,0.92,0.2671,1.471
12.35,1.5362,0.5674,0.5016,1.713
12.35,1.6057,0.2749,-0.0869,1.631
12.35,0.5275,0.2456,-0.4626,0.743
12.351,-0.2662,-0.0273,-0.501,0.568
12.351,-0.6612,-0.3333,-0.5153,0.902
12.351,-1.0858,-0.7106,-0.836,1.544
12.351,-1.5978,-1.0371,-0.7525,2.048
12.351,-2.5278,-1.2222,-0.5639,2.864
12.351,-2.3475,-1.5908,-0.3585,2.858
12.351,-8.662,-2.1904,-5.7491,10.625
12.352,5.6085,-2.223,9.0663,10.89
12.352,-1.9767,-1.4958,-3.1917,4.041
12.352,-2.9236,-1.8162,-1.8614,3.913
12.352,-0.8783,-1.5601,0.5846,1.883
12.352,-0.1618,-1.7892,1.4475,2.307
12.352,-0.467,-1.9536,0.5148,2.074
12.352,-0.3343,-1.7975,-0.0808,1.83
12.353,0.0425,-1.6704,-0.043,1.671
12.353,0.3939,-1.5244,0.1399,1.581
12.353,0.634,-1.3524,0.1191,1.498
12.353,0.8514,-1.2906,0.0646,1.547
12.353,0.936,-1.3413,0.01,1.636
12.353,0.7968,-1.4398,-0.0375,1.646
12.353,0.5267,-1.5214,-0.0805,1.612
12.354,0.4029,-1.5576,-0.1238,1.614
12.354,0.327,-1.5005,-0.1649,1.545
12.354,0.2656,-1.3528,-0.2161,1.395
12.354,0.2137,-1.2076,-0.2055,1.243
12.354,0.1807,-1.0196,-0.1617,1.048
12.354,0.2408,-0.8605,-0.1733,0.91
12.354,0.3031,-0.7328,-0.2042,0.819
12.354,0.2958,-0.5788,-0.2449,0.695
12.355,0.3172,-0.3819,-0.2126,0.54
12.355,-6.2745,-1.0237,-5.7476,8.57
12.355,6.7086,-0.3601,9.5223,11.654
12.355,-1.0873,0.183,-3.2161,3.4
12.355,0.5989,0.4051,-1.5086,1.673
12.355,1.8259,1.5803,-0.0467,2.415
12.356,1.6354,1.1888,0.2655,2.039
12.356,1.3863,1.0272,-0.0175,1.726
12.356,1.1239,0.8156,-0.4346,1.455
12.356,0.8502,0.5611,-0.5602,1.163
12.356,0.5265,0.5244,-0.4518,0.87
12.356,0.248,0.5834,-0.3243,0.712
12.356,0.1221,0.5587,-0.309,0.65
12.356,0.1368,0.4362,-0.3172,0.556
12.356,0.1029,0.2756,-0.3061,0.425
12.357,0.0949,0.1702,-0.266,0.33
12.357,0.0841,0.0889,-0.2212,0.253
12.357,0.0751,-0.0018,-0.2121,0.225
12.357,0.1497,-0.0589,-0.2674,0.312
12.357,0.198,-0.0801,-0.342,0.403
12.357,0.182,-0.0631,-0.3567,0.405
12.357,0.1281,-0.0819,-0.3401,0.373
12.357,0.082,-0.1031,-0.3302,0.356
12.357,0.0888,-0.153,-0.3584,0.4
12.358,0.1035,-0.1789,-0.4052,0.455
12.358,0.0855,-0.1618,-0.3753,0.418
12.358,0.0418,-0.1662,-0.3521,0.392
12.358,0.0369,-0.1731,-0.3335,0.378
12.358,0.0467,-0.1298,-0.3841,0.408
12.358,0.0112,-0.1175,-0.389,0.407
12.358,-0.0242,-0.1125,-0.3699,0.387
12.358,-0.0022,-0.1123,-0.365,0.382
12.358,0.0315,-0.0953,-0.3696,0.383
12.358,0.0532,-0.0902,-0.3694,0.384
12.359,0.0674,-0.1091,-0.3691,0.391
12.359,0.0885,-0.1016,-0.3377,0.364
12.359,0.1404,-0.118,-0.3708,0.414
12.359,0.1656,-0.108,-0.4423,0.484
12.359,0.1428,-0.1459,-0.4564,0.5
12.359,0.1055,-0.1766,-0.4013,0.451
12.359,0.1279,-0.2144,-0.3654,0.443
12.359,0.0902,-0.2234,-0.2317,0.334
12.359,0.0354,-0.2634,-0.2176,0.344
12.36,0.0712,-0.3177,-0.2038,0.384
12.36,0.1759,-0.3266,-0.1876,0.416
12.36,0.2514,-0.3569,-0.2364,0.496
12.36,0.3124,-0.3992,-0.2307,0.557
12.36,0.3375,-0.4318,-0.2709,0.611
12.36,0.3317,-0.3832,-0.2159,0.551
12.36,0.3212,-0.3299,-0.2115,0.507
12.36,0.3229,-0.3078,-0.272,0.523
12.36,0.3415,-0.2738,-0.2612,0.51
12.36,0.3914,-0.2733,-0.2315,0.531
12.361,0.4105,-0.2777,-0.1759,0.526
12.361,0.3868,-0.3084,-0.1326,0.512
12.361,0.3226,-0.3748,-0.0895,0.503
12.361,0.2466,-0.415,-0.0538,0.486
12.361,0.2232,-0.4288,-0.0781,0.49
12.361,0.2072,-0.4306,-0.0597,0.482
12.361,0.2414,-0.4349,-0.0679,0.502
12.361,0.2399,-0.4511,-0.1506,0.533
12.361,0.2672,-0.441,-0.1329,0.532
12.362,0.2539,-0.4573,-0.1273,0.538
12.362,0.2408,-0.4783,-0.129,0.551
12.362,0.266,-0.4562,-0.1283,0.543
12.362,0.2029,-0.4557,-0.1396,0.518
12.362,0.2044,-0.4935,-0.122,0.548
12.362,0.1795,-0.5335,-0.1308,0.578
12.362,0.1426,-0.5759,-0.0917,0.6
12.362,0.065,-0.6087,-0.0023,0.612
12.362,0.0254,-0.6437,0.0324,0.645
12.362,0.0122,-0.6572,0.0098,0.657
12.363,0.0276,-0.6157,-0.0268,0.617
12.363,0.0453,-0.5527,-0.0249,0.555
12.363,0.0845,-0.4587,-0.0562,0.47
12.363,0.1165,-0.372,-0.044,0.392
12.363,0.1869,-0.2901,-0.041,0.348
12.363,0.2191,-0.1845,-0.0495,0.291
12.363,0.1821,-0.1029,-0.0625,0.218
12.363,0.1309,-0.05,-0.0919,0.168
12.363,0.1061,-0.0187,-0.1354,0.173
12.364,0.103,0.0603,-0.1166,0.167
12.364,0.1266,0.2635,-0.0928,0.307
12.364,0.1698,0.3899,-0.1046,0.438
12.364,0.2063,0.4277,-0.1188,0.489
12.364,0.2411,0.549,-0.0897,0.606
12.364,0.3245,0.6845,-0.0869,0.762
12.364,0.3584,0.7456,-0.024,0.828
12.364,0.4097,0.8042,-0.0041,0.903
12.364,0.3418,0.8101,0.0039,0.879
12.364,0.2718,0.7372,0.0001,0.786
12.365,0.1733,0.6762,0.0275,0.699
12.365,0.1299,0.6417,0.0264,0.655
12.365,0.0507,0.5546,0.0062,0.557
12.365,-0.019,0.4725,-0.0184,0.473
12.365,-0.0984,0.4454,-0.0094,0.456
12.365,-0.1586,0.373,-0.024,0.406
12.365,-0.1831,0.3389,-0.0169,0.386
12.365,-0.1909,0.2571,-0.0335,0.322
12.365,-0.1988,0.1682,0.0456,0.264
12.365,-0.1303,0.0532,0.0317,0.144
12.366,-0.1863,-0.0019,0.0679,0.198
12.366,-0.1348,-0.0641,-0.0105,0.15
12.366,-0.026,-0.1358,-0.0076,0.138
12.366,-0.0154,-0.1572,-0.0021,0.158
12.366,-0.0481,-0.2598,0.001,0.264
12.366,-0.1099,-0.3837,0.0306,0.4
12.366,-0.1862,-0.4764,0.1128,0.524
12.366,-0.2319,-0.5355,0.1354,0.599
12.366,-0.2923,-0.5395,0.1317,0.628
12.367,-0.2884,-0.529,0.1258,0.616
12.367,-0.2131,-0.5139,0.1318,0.572
12.367,-0.1641,-0.4652,0.0732,0.499
12.367,-0.1296,-0.4215,0.0239,0.442
12.367,-0.1117,-0.3993,0.0438,0.417
12.367,-0.0842,-0.3676,0.0876,0.387
12.367,-0.0519,-0.3431,0.1264,0.369
12.367,-0.0195,-0.3377,0.1603,0.374
12.367,-0.0252,-0.3109,0.1606,0.351
12.367,-0.0571,-0.265,0.1775,0.324
12.368,-0.0938,-0.2264,0.1679,0.297
12.368,-0.0825,-0.14,0.1318,0.209
12.368,-0.0471,-0.0585,0.0957,0.122
12.368,-0.0713,0.0061,0.1,0.123
12.368,-0.0737,0.03,0.1258,0.149
12.368,-0.0398,0.0442,0.1444,0.156
12.368,-0.0512,0.08,0.1701,0.195
12.368,-0.0792,0.1228,0.1885,0.239
12.368,-0.0782,0.1202,0.1925,0.24
12.369,-0.0532,0.1534,0.1653,0.232
12.369,-0.0616,0.2223,0.1093,0.255
12.369,-0.0982,0.2243,0.1079,0.268
12.369,-0.1013,0.1832,0.1041,0.234
12.369,-0.0658,0.1445,0.0928,0.184
12.369,-0.0612,0.156,0.0718,0.182
12.369,-0.1092,0.1746,0.07,0.218
12.369,-0.1522,0.155,0.0681,0.228
12.369,-0.1832,0.1331,0.0829,0.241
12.369,-0.2382,0.0586,0.1051,0.267
12.37,-0.2359,-0.0039,0.1108,0.261
12.37,-0.2648,-0.0447,0.0857,0.282
12.37,-0.2772,-0.0472,0.1064,0.301
12.37,-0.3017,-0.064,0.1608,0.348
12.37,-0.2883,-0.1094,0.1772,0.356
12.37,-0.275,-0.1094,0.2059,0.361
12.37,-0.2714,-0.1332,0.2108,0.369
12.37,-0.2942,-0.1426,0.2492,0.411
12.37,-0.267,-0.1353,0.2615,0.397
12.371,-0.2015,-0.1567,0.2259,0.341
12.371,-0.1814,-0.1565,0.243,0.341
12.371,-0.1493,-0.1635,0.2431,0.329
12.371,-0.1075,-0.1347,0.2598,0.312
12.371,-0.0773,-0.149,0.3003,0.344
12.371,-0.0204,-0.1776,0.3385,0.383
12.371,0.0297,-0.1465,0.3695,0.399
12.371,-0.0276,-0.1585,0.3336,0.37
12.372,-0.0918,-0.1657,0.2883,0.345
12.372,-0.0602,-0.1872,0.2334,0.305
12.372,-0.1146,-0.3808,0.1352,0.42
12.372,-0.0254,-0.1965,0.2309,0.304
12.372,-0.0127,-0.2236,0.2104,0.307
12.372,-0.1189,-0.305,0.1401,0.356
12.372,-0.1889,-0.3359,0.1843,0.427
12.372,-0.1731,-0.4234,0.1854,0.494
12.372,-0.1434,-0.4533,0.1388,0.495
12.373,-0.0737,-0.4141,0.0997,0.432
12.373,-0.052,-0.3017,0.0844,0.318
12.373,-0.0327,-0.2732,0.0336,0.277
12.373,0.072,-0.3542,0.0399,0.364
12.373,-0.0447,-0.1261,0.0649,0.149
12.373,0.0391,0.0052,0.1682,0.173
12.373,0.0822,0.0737,0.0428,0.118
12.373,-0.0005,0.1511,0.0013,0.151
12.373,-0.0326,0.1614,0.0238,0.166
12.373,-0.0454,0.1265,-0.0064,0.135
12.374,-0.1434,0.1322,-0.0059,0.195
12.374,-0.1457,0.2779,0.1702,0.357
12.374,-0.058,0.2747,0.1489,0.318
12.374,-0.0658,0.274,0.0894,0.296
12.374,-0.0589,0.3043,0.1063,0.328
12.374,-0.0661,0.3011,0.0802,0.319
12.374,-0.1113,0.2812,0.0781,0.312
12.374,-0.1588,0.2159,0.0928,0.284
12.374,-0.2229,0.1961,0.122,0.321
12.375,-0.2081,0.1452,0.0941,0.271
12.375,-0.2102,0.049,0.0183,0.217
12.375,-0.2697,0.0151,-0.0167,0.271
12.375,-0.2936,0.0123,0.0177,0.294
12.375,-0.3201,-0.0263,-0.1033,0.337
12.375,-0.4115,-0.0481,-0.1789,0.451
12.375,-0.4146,-0.089,-0.0898,0.433
12.375,-0.3916,-0.0939,0.04,0.405
12.375,-0.4072,-0.1754,0.0334,0.445
12.376,-0.4397,-0.1826,0.0771,0.482
12.376,-0.4771,-0.1945,0.1208,0.529
12.376,-0.445,-0.1921,0.1264,0.501
12.376,-0.3771,-0.1539,0.0987,0.419
12.376,-0.3259,-0.1133,0.0925,0.357
12.376,-0.2505,-0.0632,0.1055,0.279
12.376,-0.2228,-0.0467,0.1498,0.273
12.376,-0.1853,-0.0421,0.2542,0.317
12.376,-0.1786,-0.0663,0.3732,0.419
12.376,-0.1478,-0.0784,0.4352,0.466
12.377,-0.1385,-0.0786,0.4642,0.491
12.377,-0.1843,-0.0859,0.441,0.486
12.377,-0.2229,-0.1027,0.4278,0.493
12.377,-0.2641,-0.1028,0.3886,0.481
12.377,-0.291,-0.1171,0.3544,0.473
12.377,-0.3397,-0.1363,0.3252,0.49
12.377,-0.3911,-0.1529,0.3107,0.522
12.377,-0.3782,-0.1457,0.2797,0.492
12.377,-0.3966,-0.1527,0.2176,0.477
12.378,-0.3865,-0.1407,0.1723,0.446
12.378,-0.4006,-0.1333,0.0956,0.433
12.378,-0.3984,-0.095,0.0044,0.41
12.378,-0.3296,-0.0566,-0.0439,0.337
12.378,-0.261,-0.0208,-0.1046,0.282
12.378,-0.1879,-0.0255,-0.1535,0.244
12.378,-0.1892,-0.0136,-0.2028,0.278
12.378,-0.186,-0.0447,-0.2189,0.291
12.378,-0.0851,-0.102,-0.2546,0.287
12.378,-0.0011,-0.1592,-0.2859,0.327
12.379,0.0636,-0.171,-0.3007,0.352
12.379,0.0779,-0.1971,-0.2895,0.359
12.379,0.1376,-0.2591,-0.3265,0.439
12.379,0.2475,-0.3568,-0.3733,0.573
12.379,0.3071,-0.2824,-0.4084,0.584
12.379,0.3333,-0.2821,-0.4295,0.612
12.379,0.2279,-0.2197,-0.3458,0.469
12.379,0.2468,-0.2889,-0.3557,0.52
12.379,0.3087,-0.3125,-0.4017,0.595
12.38,0.323,-0.3195,-0.4047,0.608
12.38,0.3831,-0.3025,-0.3455,0.598
12.38,0.4149,-0.2258,-0.3054,0.563
12.38,0.469,-0.2377,-0.2487,0.582
12.38,0.4806,-0.2353,-0.1944,0.569
12.38,0.4808,-0.1875,-0.1761,0.545
12.38,0.5127,-0.159,-0.1938,0.571
12.38,0.521,-0.1018,-0.2405,0.583
12.38,0.4052,-0.0041,-0.2394,0.471
12.38,0.2752,0.0362,-0.2287,0.36
12.381,0.2024,0.0549,-0.1415,0.253
12.381,0.1534,0.076,-0.052,0.179
12.381,0.061,0.1234,-0.0748,0.157
12.381,-0.022,0.2042,-0.0853,0.222
12.381,-0.0669,0.2611,-0.0692,0.278
12.381,-0.1002,0.3059,-0.0121,0.322
12.381,-0.1359,0.3078,0.0337,0.338
12.381,-0.1527,0.3168,0.0584,0.356
12.381,-0.1815,0.3401,0.0838,0.395
12.381,-0.1937,0.4017,0.1554,0.472
12.382,-0.2587,0.4083,0.2038,0.525
12.382,-0.2616,0.4173,0.1812,0.525
12.382,-0.2599,0.4311,0.1545,0.527
12.382,-0.3086,0.433,0.1474,0.552
12.382,-0.3359,0.442,0.1959,0.589
12.382,-0.3707,0.432,0.2043,0.605
12.382,-0.4274,0.4173,0.1392,0.613
12.382,-0.87,0.3524,-0.4773,1.053
12.383,-0.397,0.2734,0.4039,0.629
12.383,-0.1012,0.1968,0.7872,0.818
12.383,-0.6767,0.1228,-0.2758,0.741
12.383,-0.6932,0.1469,-0.2138,0.74
12.383,-0.0235,0.1495,0.7472,0.762
12.383,0.4337,0.1042,1.0066,1.101
12.383,0.1664,0.0781,0.228,0.293
12.383,-0.0363,0.1238,-0.1026,0.165
12.383,0.0525,0.1359,0.0087,0.146
12.383,0.1603,0.0285,0.1796,0.242
12.384,0.1962,-0.1432,0.3311,0.411
12.384,0.1698,-0.2622,0.2744,0.416
12.384,0.1258,-0.3475,0.1538,0.4
12.384,0.1846,-0.3634,0.1761,0.444
12.384,0.358,-0.3649,0.2742,0.58
12.384,0.5293,-0.3426,0.35,0.721
12.384,0.5744,-0.3467,0.195,0.699
12.384,0.6439,-0.3461,0.1613,0.749
12.384,0.7331,-0.3719,0.1794,0.841
12.385,0.89,-0.4096,0.3474,1.039
12.385,1.1413,-0.3351,0.3448,1.238
12.385,0.74,-0.3013,-0.0957,0.805
12.385,0.5784,-0.4277,-0.0342,0.72
12.385,0.3763,-0.4608,-0.0546,0.597
12.385,0.1982,-0.47,-0.1495,0.532
12.385,0.0728,-0.4289,-0.0485,0.438
12.385,0.0311,-0.419,0.1742,0.455
12.385,-0.0393,-0.4067,0.2098,0.459
12.385,-0.0712,-0.3586,0.1591,0.399
12.386,-0.0865,-0.2938,0.1562,0.344
12.386,-0.0825,-0.2291,0.1411,0.281
12.386,-0.0903,-0.2003,0.1261,0.253
12.386,-0.1386,-0.1692,0.087,0.235
12.386,-0.1724,-0.1454,0.1389,0.265
12.386,-0.2777,-0.088,0.1764,0.341
12.386,-0.4331,-0.026,0.1303,0.453
12.386,-0.4568,0.0216,0.1321,0.476
12.386,-0.4232,0.0739,0.1338,0.45
12.387,-0.3822,0.1238,0.1238,0.42
12.387,-0.4272,0.1832,0.1067,0.477
12.387,-0.4218,0.2018,0.0872,0.476
12.387,-0.3613,0.1989,0.0441,0.415
12.387,-0.2645,0.2176,0.0656,0.349
12.387,-0.299,0.2768,0.0132,0.408
12.387,-0.4243,0.2666,0.0279,0.502
12.387,-0.576,0.1896,-0.0123,0.607
12.387,-0.5988,0.1007,0.0578,0.61
12.388,-0.6673,0.0287,0.0324,0.669
12.388,-0.7363,0.0142,0.0695,0.74
12.388,-0.705,-0.0361,0.0663,0.709
12.388,-0.6262,-0.0648,0.0729,0.634
12.388,-0.5523,-0.0911,-0.0446,0.562
12.388,-0.4892,-0.0791,-0.126,0.511
12.388,-6.2478,0.1222,-7.6956,9.913
12.388,-3.7253,-0.2834,-0.7272,3.806
12.389,4.664,-0.3279,10.2102,11.23
12.389,-3.0989,-0.7786,-3.7928,4.959
12.389,-2.4342,-0.4854,-1.1503,2.736
12.389,0.8297,0.1324,3.0053,3.121
12.389,0.3005,0.4004,-0.7373,0.891
12.39,1.5533,0.2451,0.8432,1.784
12.39,2.3303,0.7135,0.8686,2.587
12.39,0.5374,0.6053,-1.35,1.574
12.39,1.2244,0.2798,-0.5351,1.365
12.39,1.5956,0.0931,0.2694,1.621
12.39,1.3019,-0.2704,0.3176,1.367
12.39,0.6896,-0.4901,-0.0241,0.846
12.39,0.1812,-0.5782,-0.2604,0.66
12.39,-0.1189,-0.5132,-0.3749,0.647
12.391,-0.484,-0.453,-0.4656,0.81
12.391,-0.6657,-0.3282,-0.4967,0.893
12.391,-0.7479,-0.1152,-0.3125,0.819
12.391,-0.7902,-0.182,-0.2982,0.864
12.391,-0.6705,-0.2391,-0.2412,0.752
12.391,-0.4053,-0.1408,-0.1561,0.457
12.391,-0.2192,0.0219,-0.1,0.242
12.391,-0.1098,0.1652,-0.0417,0.203
12.391,-0.0482,0.2893,0.0189,0.294
12.392,0.0731,0.3224,0.0319,0.332
12.392,0.2423,0.2861,-0.0267,0.376
12.392,0.2465,0.2738,-0.0683,0.375
12.392,0.2365,0.2543,-0.1025,0.362
12.392,0.2457,0.1871,-0.1006,0.325
12.392,0.0564,0.1797,-0.1126,0.219
12.392,-0.0275,0.1484,-0.1339,0.202
12.392,-0.0731,0.098,-0.1979,0.233
12.392,-0.1042,0.0406,-0.2142,0.242
12.392,-0.1449,-0.0072,-0.2114,0.256
12.393,-0.1689,-0.0598,-0.1731,0.249
12.393,-0.1999,-0.0884,-0.1424,0.261
12.393,-0.2119,-0.1289,-0.0951,0.266
12.393,-0.1761,-0.1407,-0.0337,0.228
12.393,-0.0807,-0.1692,-0.0106,0.188
12.393,-0.0954,-0.1451,-0.0184,0.175
12.393,-0.0142,-0.1354,-0.0403,0.142
12.393,0.036,-0.1209,-0.0309,0.13
12.394,0.0458,-0.1208,-0.0022,0.129
12.394,0.0677,-0.0943,-0.0139,0.117
12.394,0.011,-0.0369,-0.004,0.039
12.394,-0.0433,-0.0058,0.0132,0.046
12.394,-0.0809,0.0181,0.0328,0.089
12.394,-0.188,0.042,0.0549,0.2
12.394,-0.2213,0.0491,0.0745,0.239
12.394,-0.1782,0.0347,0.0103,0.182
12.394,-0.1163,0.0228,-0.011,0.119
12.395,-0.0569,0.0204,-0.0277,0.066
12.395,-0.0142,0.0084,-0.0374,0.041
12.395,0.0573,0.0323,0.0198,0.069
12.395,0.1121,0.1087,0.0721,0.172
12.395,-0.2662,-0.0969,0.1579,0.324
12.395,-0.1997,-0.2449,0.1502,0.35
12.395,-0.0856,-0.2828,0.0418,0.298
12.395,-0.0121,-0.2561,-0.0163,0.257
12.395,-0.0247,-0.263,-0.0004,0.264
12.395,-0.0132,-0.2698,-0.0034,0.27
12.396,0.0915,-0.3435,0.1636,0.391
12.396,-0.0619,-0.3264,-0.1552,0.367
12.396,-0.2391,-0.3308,-0.0604,0.413
12.396,-0.2298,-0.3089,-0.0687,0.391
12.396,-0.2109,-0.2249,-0.1037,0.325
12.396,-0.1609,-0.1911,0.0287,0.252
12.396,-0.0871,-0.1503,0.02,0.175
12.396,-0.0635,-0.1621,-0.0126,0.175
12.396,-0.0901,-0.15,-0.0115,0.175
12.397,-0.1207,-0.1155,-0.0174,0.168
12.397,-0.1226,-0.0291,-0.0662,0.142
12.397,-0.1388,0.028,-0.1505,0.207
12.397,-0.1454,0.1037,-0.1205,0.215
12.397,-0.1352,0.1787,-0.0887,0.241
12.397,-0.0324,0.2246,-0.0644,0.236
12.397,0.0816,0.2274,0.0046,0.242
12.397,0.0904,0.1994,-0.0098,0.219
12.397,0.0424,0.1858,0.0142,0.191
12.398,0.0233,0.1201,0.0312,0.126
12.398,0.014,0.0454,0.0316,0.057
12.398,0.0191,0.0213,0.025,0.038
12.398,-0.0611,0.0305,0.0258,0.073
12.398,-0.1027,0.0325,0.0172,0.109
12.398,-0.0105,0.0061,-0.0528,0.054
12.398,0.0598,-0.1198,-0.1215,0.181
12.398,-0.0844,0.0353,-0.0637,0.111
12.398,-0.2085,-0.0267,-0.0228,0.211
12.398,-0.2416,-0.1547,0.0106,0.287
12.399,-0.2318,-0.227,0.0651,0.331
12.399,-0.1865,-0.1943,0.1264,0.298
12.399,-0.132,-0.1476,0.1208,0.232
12.399,-0.0564,-0.1108,0.082,0.149
12.399,0.0093,-0.0554,0.0837,0.101
12.399,0.101,-0.0669,0.0212,0.123
12.399,0.171,-0.0285,-0.0077,0.174
12.399,0.1839,-0.0023,0.0586,0.193
12.399,0.216,0.1257,0.4167,0.486
12.4,-0.2308,0.4169,0.7443,0.884
12.4,0.0261,0.1438,0.1529,0.212
12.4,0.4126,-0.1888,0.0088,0.454
12.4,0.381,-0.2558,-0.0447,0.461
12.4,0.3331,-0.2869,-0.1082,0.453
12.4,0.0965,-0.2725,0.0578,0.295
12.4,0.0035,-0.2749,0.0825,0.287
12.4,-0.0296,-0.3561,-0.13,0.38
12.4,-0.0223,-0.3967,-0.3596,0.536
12.401,-0.0248,-0.3415,-0.216,0.405
12.401,-0.0539,-0.186,0.0837,0.211
12.401,0.2903,0.0194,0.2739,0.4
12.401,0.3524,-0.0406,-0.313,0.473
12.401,0.1208,-0.0935,-0.3547,0.386
12.401,-0.0367,-0.1128,-0.2821,0.306
12.401,-0.3094,-0.0866,-0.1496,0.354
12.401,-0.5472,-0.0819,0.0816,0.559
12.401,-1.6021,-0.3328,0.5717,1.733
12.401,-1.4291,-0.2893,0.5457,1.557
12.402,-0.2815,0.0123,0.1329,0.312
12.402,0.2725,0.0841,-0.3035,0.416
12.402,0.2219,-0.112,-0.5016,0.56
12.402,0.1387,-0.1382,-0.4064,0.451
12.402,-0.1045,-0.0067,0.0162,0.106
12.402,-1.5091,0.0674,2.6565,3.056
12.402,-9.5177,-1.7083,8.9857,13.2
12.403,-9.2223,-3.1636,1.4723,9.86
12.403,-3.601,-0.1308,-2.2758,4.262
12.403,1.4635,2.4347,-2.4708,3.765
12.403,3.0443,3.1282,-2.3128,4.94
12.403,5.0865,2.0235,-3.8353,6.684
12.404,4.5377,0.5734,-2.2116,5.08
12.404,2.6945,-0.3422,-0.2923,2.732
12.404,0.8497,-0.8169,0.9834,1.535
12.404,-0.4645,-0.9541,1.5068,1.843
12.404,-1.1124,-0.8856,1.2912,1.921
12.404,-1.1357,-0.4898,0.736,1.439
12.404,-0.8527,-0.0946,0.0254,0.858
12.404,-0.0607,0.5176,-0.2572,0.581
12.405,0.5053,0.1827,-0.6832,0.869
12.405,1.3856,-0.0325,-1.4026,1.972
12.405,1.6514,0.0725,-1.6653,2.346
12.405,1.9484,0.4473,-0.6583,2.105
12.405,2.1518,0.377,0.4228,2.225
12.405,1.6925,0.1369,-0.2549,1.717
12.406,1.068,0.1911,-0.3229,1.132
12.406,0.8254,0.3908,-0.1233,0.922
12.406,0.6128,0.4134,-0.326,0.808
12.406,0.5234,0.4527,-0.0813,0.697
12.406,0.5378,0.3676,0.2216,0.688
12.406,0.3089,0.2157,0.3388,0.507
12.406,0.0518,0.0617,0.3734,0.382
12.406,-0.0329,-0.03,0.5143,0.516
12.406,-0.1585,-0.0737,0.388,0.426
12.406,-0.617,-0.2009,0.2169,0.684
12.407,-0.9282,-0.3207,0.1108,0.988
12.407,-1.3413,-0.1941,0.1103,1.36
12.407,-1.5891,-0.1535,0.1917,1.608
12.407,-1.715,-0.2204,0.2808,1.752
12.407,-1.465,-0.3038,0.3002,1.526
12.407,-1.0208,-0.3512,0.5749,1.223
12.407,-0.8296,-0.3626,0.754,1.178
12.407,-0.6614,-0.3764,0.6467,0.999
12.408,-0.5616,-0.5765,0.2935,0.857
12.408,-0.5918,-0.5181,-0.033,0.787
12.408,-0.4285,-0.1803,0.0785,0.471
12.408,-0.4615,0.1118,0.1021,0.486
12.408,-0.2701,0.0498,0.1906,0.334
12.408,-0.0811,-0.0455,0.186,0.208
12.408,0.0818,0.0719,0.246,0.269
12.408,0.1039,0.1366,0.0788,0.189
12.408,0.1481,0.1439,0.0886,0.225
12.409,0.2381,0.1272,0.0218,0.271
12.409,0.379,0.0842,-0.0404,0.39
12.409,0.4704,0.0794,-0.0501,0.48
12.409,0.5101,0.1128,-0.0552,0.525
12.409,0.3903,0.0745,-0.1226,0.416
12.409,0.3047,0.06,-0.1735,0.356
12.409,0.2914,-0.0285,-0.184,0.346
12.409,0.2282,-0.0931,-0.0993,0.266
12.409,0.1296,-0.2412,-0.0509,0.278
12.409,0.0433,-0.3223,-0.0125,0.325
12.41,-0.0524,-0.2718,0.0017,0.277
12.41,-0.129,-0.219,-0.0227,0.255
12.41,-0.134,-0.183,-0.059,0.234
12.41,-0.1583,-0.1255,-0.0451,0.207
12.41,-0.1876,-0.0299,-0.036,0.193
12.41,-0.1093,0.0203,-0.0123,0.112
12.41,-0.079,0.0417,0.0352,0.096
12.41,-0.0655,0.0272,0.0802,0.107
12.41,-0.1358,0.0008,0.0965,0.167
12.411,-0.2253,-0.0303,0.0983,0.248
12.411,-0.2792,0.0031,0.1047,0.298
12.411,-0.2713,-0.0089,0.0705,0.28
12.411,-0.2588,0.0724,0.0364,0.271
12.411,-0.1941,0.1033,0.0141,0.22
12.411,-0.1605,0.0339,-0.0224,0.166
12.411,-0.1103,-0.0665,-0.0423,0.136
12.411,-0.0506,-0.1573,-0.0839,0.185
12.411,-0.0005,-0.181,-0.1043,0.209
12.412,0.0065,-0.1593,-0.0842,0.18
12.412,-0.0439,-0.1448,0.0314,0.155
12.412,-0.1996,-0.159,0.2307,0.344
12.412,-0.3245,-0.1994,0.3103,0.491
12.412,-0.4235,-0.2278,0.3039,0.569
12.412,-0.3963,-0.2226,0.2283,0.509
12.412,-0.3143,-0.1888,0.0738,0.374
12.412,-0.1968,-0.1264,-0.0518,0.24
12.412,-0.1035,-0.095,-0.1391,0.198
12.412,0.0136,-0.0685,-0.1906,0.203
12.413,0.1092,-0.0397,-0.2041,0.235
12.413,0.1643,-0.0085,-0.1579,0.228
12.413,0.2148,0.0035,-0.1502,0.262
12.413,0.2632,-0.0371,-0.1761,0.319
12.413,0.3096,-0.0155,-0.1709,0.354
12.413,0.299,0.0179,-0.1899,0.355
12.413,0.2721,0.0585,-0.1827,0.333
12.413,0.2049,0.0679,-0.1494,0.262
12.413,0.1285,0.0271,-0.1186,0.177
12.414,0.0381,-0.016,-0.0857,0.095
12.414,-0.0235,-0.0065,-0.0601,0.065
12.414,-0.085,0.0388,-0.0248,0.097
12.414,-0.1057,0.0554,-0.0373,0.125
12.414,-0.1169,0.1054,-0.0425,0.163
12.414,-0.0969,0.0359,-0.0595,0.119
12.414,-0.0886,-0.0336,-0.0642,0.114
12.414,0.2524,-0.0432,0.2065,0.329
12.414,-0.165,-0.0313,0.3316,0.372
12.414,-0.5251,-0.1436,0.3185,0.631
12.415,-0.4646,-0.1721,0.0882,0.503
12.415,-0.3448,-0.0739,-0.1489,0.383
12.415,-0.424,0.0099,-0.2398,0.487
12.415,-0.482,-0.0642,-0.113,0.499
12.415,-0.1718,-0.174,0.0639,0.253
12.415,-0.12,-0.2239,0.0518,0.259
12.415,-0.2764,-0.2498,0.0397,0.375
12.415,-0.3038,-0.1897,0.0396,0.36
12.415,-0.2286,-0.0914,0.0946,0.264
12.416,-0.0866,0.0092,0.1023,0.134
12.416,0.0984,0.0762,0.0982,0.158
12.416,0.1856,0.1311,0.0463,0.232
12.416,0.2396,0.1406,0.0209,0.279
12.416,0.349,0.107,0.0265,0.366
12.416,0.4063,0.0925,0.0487,0.42
12.416,0.4379,0.0684,0.066,0.448
12.416,0.427,0.0252,0.0354,0.429
12.417,0.388,-0.0083,0.0406,0.39
12.417,0.2275,-0.0371,-0.0045,0.231
12.417,0.0481,-0.0587,-0.0688,0.102
12.417,-0.0189,-0.042,-0.0495,0.068
12.417,0.0649,-0.0254,-0.0209,0.073
12.417,-0.0427,-0.0064,-0.0642,0.077
12.417,-0.2293,0.0079,-0.0694,0.24
12.417,-0.2535,-0.009,-0.0318,0.256
12.418,-0.2135,-0.0114,0.0083,0.214
12.418,-0.2839,-0.0378,0.0556,0.292
12.418,-0.3426,-0.0545,0.0744,0.355
12.418,-0.3491,-0.0042,0.1053,0.365
12.418,-0.2745,0.0555,0.1219,0.305
12.418,-0.114,0.1152,0.1817,0.243
12.418,-0.2169,0.1629,0.1124,0.294
12.418,-0.0279,0.2152,0.1268,0.251
12.418,0.1877,0.2197,0.1028,0.307
12.418,0.3991,0.174,0.1576,0.463
12.419,0.5179,0.1593,0.15,0.562
12.419,0.5058,0.1327,0.1043,0.533
12.419,0.352,0.1276,0.0132,0.375
12.419,-7.0512,0.0298,-3.6826,7.955
12.419,-3.0349,-0.8158,0.6734,3.214
12.419,0.3612,-0.5586,1.5912,1.725
12.419,0.3294,-0.5432,0.7775,1.004
12.42,-1.0137,-0.3103,-0.2062,1.08
12.42,-0.9139,0.2093,-0.47,1.049
12.42,-0.3565,0.561,-0.1211,0.676
12.42,0.7386,0.5514,0.5251,1.061
12.42,1.0355,0.4342,0.5216,1.238
12.42,0.8577,0.2598,0.0972,0.901
12.42,0.8607,0.1094,-0.026,0.868
12.42,1.0449,-0.0147,0.0441,1.046
12.42,1.0489,-0.0909,0.0014,1.053
12.42,0.8947,-0.2675,-0.0199,0.934
12.421,1.415,-0.4225,0.1477,1.484
12.421,1.4207,-0.4867,0.0451,1.502
12.421,1.8252,-0.5795,0.3515,1.947
12.421,0.4395,-0.1322,-0.4252,0.626
12.421,0.4632,-0.1371,-0.042,0.485
12.421,-0.5461,0.0325,-0.3692,0.66
12.421,-0.2037,-0.0993,0.1212,0.257
12.421,-0.5766,-0.0062,-0.0967,0.585
12.422,-0.2011,-0.016,0.3452,0.4
12.422,-0.4982,0.2347,0.2395,0.601
12.422,-1.7258,0.3299,-0.1406,1.763
12.422,-0.0889,0.4847,0.6034,0.779
12.422,-0.7086,0.3573,0.3336,0.861
12.422,0.2628,0.3544,0.7692,0.887
12.422,0.994,0.4327,0.2581,1.114
12.422,-1.8992,0.0689,-0.3926,1.941
12.422,3.2283,0.1093,2.6931,4.206
12.423,-1.4748,0.047,-1.6524,2.215
12.423,-1.1243,-0.4357,0.5132,1.31
12.423,-1.012,-0.0359,-0.6121,1.183
12.423,-0.3685,-0.7287,0.5577,0.989
12.423,-1.0996,-0.5293,-0.088,1.223
12.423,0.202,-0.3874,-0.3154,0.539
12.423,-0.5685,-0.3605,-0.2757,0.727
12.424,3.6007,0.1323,1.6804,3.976
12.424,0.7881,0.3568,-0.8924,1.243
12.424,-5.0025,0.1583,-2.7143,5.694
12.424,1.3609,-0.0734,1.9598,2.387
12.424,1.5759,-0.317,0.5172,1.689
12.424,1.7934,-0.4673,0.5501,1.933
12.424,0.5701,-0.0056,-0.467,0.737
12.424,-0.1073,0.367,-0.4964,0.627
12.425,-1.7267,0.5196,-1.6176,2.422
12.425,-3.0709,-0.3556,0.2307,3.1
12.425,1.9225,0.1348,0.8989,2.127
12.425,-2.733,-0.8092,-0.6549,2.925
12.425,3.7308,0.083,2.3861,4.429
12.425,0.127,0.3002,-1.6512,1.683
12.425,-1.2545,0.4766,-0.5733,1.459
12.426,0.2511,0.4807,0.2121,0.582
12.426,1.0711,0.1214,0.428,1.16
12.426,0.7662,-0.2351,0.0799,0.805
12.426,0.1873,-0.278,-0.3349,0.474
12.426,-6.9143,-0.667,-3.5695,7.81
12.426,-1.4692,-0.7401,1.5301,2.247
12.426,4.7595,-0.6032,3.4589,5.914
12.427,-0.4107,0.0092,-2.1916,2.23
12.427,-2.9831,0.473,-1.7433,3.487
12.427,-3.4221,0.7739,-1.3212,3.749
12.427,-0.8608,0.4006,0.2249,0.976
12.427,3.1122,-0.3167,2.7465,4.163
12.427,2.5578,-0.0966,-0.0152,2.56
12.428,-0.0879,0.1329,-1.2589,1.269
12.428,0.5565,0.441,0.0879,0.715
12.428,1.5466,0.3661,0.6713,1.725
12.428,1.3917,0.0428,0.4848,1.474
12.428,-5.1666,-0.2392,-3.8535,6.45
12.428,-1.9713,-0.8911,1.429,2.593
12.428,0.0189,-0.7583,1.099,1.335
12.429,0.182,-0.5709,0.5204,0.794
12.429,0.5432,0.0728,-0.2279,0.594
12.429,0.1255,0.5628,-0.211,0.614
12.429,0.1025,0.9591,-0.3296,1.019
12.429,-0.6773,0.7049,-1.0332,1.422
12.429,-0.353,0.138,0.4267,0.571
12.429,0.6276,-0.1152,0.3882,0.747
12.429,2.1633,-0.4425,0.8985,2.384
12.429,4.0863,-0.1363,1.1517,4.248
12.43,0.5743,0.1814,-1.5973,1.707
12.43,0.309,0.2909,-0.1287,0.444
12.43,-1.8439,0.1041,-1.9067,2.654
12.43,-1.5507,-0.6798,0.534,1.775
12.43,0.2091,-0.734,0.6822,1.024
12.43,2.4486,-0.6233,1.7872,3.095
12.431,-1.0964,-0.1328,-1.6223,1.963
12.431,-0.1164,0.589,-0.4151,0.73
12.431,-0.8046,0.6647,-0.586,1.197
12.431,0.5544,0.5348,0.5912,0.971
12.431,0.6844,0.3165,-0.086,0.759
12.431,0.6477,0.2036,-0.1751,0.701
12.431,0.5019,0.1505,-0.2503,0.581
12.431,0.2301,0.064,-0.2156,0.322
12.431,-0.1514,-0.1777,-0.1354,0.27
12.431,-0.4973,-0.2876,-0.1486,0.593
12.432,-0.813,-0.2659,-0.2381,0.888
12.432,-1.0174,-0.2513,-0.2746,1.083
12.432,-1.0867,-0.1769,-0.3253,1.148
12.432,-1.2026,-0.136,-0.4093,1.278
12.432,-1.1617,-0.1117,-0.2922,1.203
12.432,-1.0238,-0.1042,-0.1965,1.048
12.432,-0.8894,-0.0632,-0.1199,0.9
12.432,-0.8564,0.0663,-0.1172,0.867
12.432,-0.7763,0.2673,-0.1525,0.835
12.433,-0.6754,-0.0648,0.0776,0.683
12.433,-0.6564,-0.1264,0.0971,0.675
12.433,-0.6116,-0.0302,0.0762,0.617
12.433,-0.5219,0.0636,0.0244,0.526
12.433,-0.4324,0.0521,-0.0009,0.435
12.433,-0.3093,0.0478,0.0887,0.325
12.433,-0.2075,-0.033,0.2096,0.297
12.433,-0.1985,-0.1185,0.2518,0.342
12.433,-0.2633,-0.1346,0.1626,0.337
12.434,-0.403,-0.141,-0.0338,0.428
12.434,-3.5211,-0.305,-1.336,3.778
12.434,0.0937,-0.3875,1.9624,2.002
12.434,1.7952,-0.0544,0.5909,1.891
12.434,-0.8605,0.0753,-1.1884,1.469
12.434,-0.6195,0.1929,-0.2553,0.697
12.434,0.4154,0.37,-0.0114,0.556
12.434,0.7866,0.2696,0.1443,0.844
12.434,0.6617,0.0832,0.0103,0.667
12.435,0.5737,-0.0768,-0.2341,0.624
12.435,-2.5053,-0.3703,-1.8619,3.143
12.435,0.2816,-0.4172,0.9822,1.104
12.435,-0.9002,-0.5573,-0.4527,1.151
12.435,0.5878,-0.6232,1.0823,1.38
12.435,0.5235,-0.1155,-0.4322,0.689
12.435,-0.9716,-0.2081,-0.37,1.06
12.435,-0.4933,0.3709,-0.4031,0.737
12.436,1.3218,0.3134,0.9375,1.651
12.436,-0.2747,0.3443,-0.6778,0.808
12.436,0.4114,-0.0144,0.4714,0.626
12.436,0.6778,0.1075,0.0724,0.69
12.436,-0.5237,-0.0671,-0.2787,0.597
12.436,-0.5386,-0.2509,-0.0103,0.594
12.436,-0.2523,-0.3246,0.1,0.423
12.436,-0.2612,-0.4077,0.1483,0.506
12.436,-3.2608,-0.4952,-1.1079,3.479
12.437,-0.9733,-0.5396,0.9194,1.444
12.437,-0.5959,-0.2947,0.2104,0.697
12.437,-1.319,-0.3631,0.1642,1.378
12.437,2.837,0.2113,1.9249,3.435
12.437,-0.3159,0.5722,-0.9846,1.182
12.437,-1.4312,0.3665,-0.635,1.608
12.437,0.0004,0.3283,0.3264,0.463
12.438,0.8182,0.1442,0.6603,1.061
12.438,0.6423,-0.0254,0.4748,0.799
12.438,0.2807,-0.1279,0.0313,0.31
12.438,0.0967,0.0373,-0.132,0.168
12.438,-0.039,0.1258,-0.0656,0.147
12.438,-0.0427,0.1305,0.0652,0.152
12.438,-0.0075,0.0492,0.1265,0.136
12.438,0.0567,-0.0393,0.0895,0.113
12.438,0.0831,-0.0154,0.0932,0.126
12.439,0.081,0.0467,0.0611,0.112
12.439,0.0123,0.0968,0.0889,0.132
12.439,-0.018,0.1181,0.1167,0.167
12.439,-0.0458,0.1179,0.0849,0.152
12.439,-0.088,0.1439,0.0435,0.174
12.439,-0.1541,0.1031,-0.0026,0.185
12.439,-0.2635,0.0575,-0.0463,0.274
12.439,-0.3255,-0.0501,-0.0564,0.334
12.439,-0.3498,-0.1432,-0.0639,0.383
12.439,-0.3534,-0.2337,-0.0978,0.435
12.44,-0.3002,-0.2882,-0.1459,0.441
12.44,-0.219,-0.3067,-0.1486,0.405
12.44,-0.1168,-0.2989,-0.1679,0.362
12.44,-0.0653,-0.2695,-0.1464,0.314
12.44,-0.0091,-0.2785,-0.0891,0.293
12.44,-0.0392,-0.316,-0.0773,0.328
12.44,0.0431,-0.3703,-0.0154,0.373
12.441,0.0821,-0.3575,-0.0276,0.368
12.441,0.1617,-0.2827,-0.035,0.328
12.441,-0.6189,-0.1456,-0.6134,0.884
12.441,-5.8684,-0.8281,-2.5766,6.462
12.441,-0.6475,-0.322,1.5433,1.704
12.441,4.3353,0.0349,3.1381,5.352
12.441,0.0159,-0.213,-0.7596,0.789
12.441,-1.2053,0.0821,-1.2351,1.728
12.442,0.0101,0.5967,-0.0366,0.598
12.442,0.5237,0.3361,0.4653,0.777
12.442,1.7243,0.0853,1.0189,2.005
12.442,-0.3824,-0.3086,-0.6443,0.81
12.442,-0.1947,-0.1881,-0.4125,0.493
12.442,0.6638,-0.1755,0.2113,0.718
12.442,1.9105,0.1643,0.9441,2.137
12.442,0.4079,0.1331,-0.2961,0.521
12.442,0.1621,0.0232,-0.5576,0.581
12.443,0.9746,-0.1537,-0.1474,0.998
12.443,1.3646,-0.0844,0.2836,1.396
12.443,1.7533,-0.2519,0.3319,1.802
12.443,0.3421,-0.1253,-0.435,0.567
12.443,1.1183,-0.3861,-0.1062,1.188
12.443,-0.4842,-0.1423,-0.564,0.757
12.443,1.8825,-0.518,0.5849,2.038
12.443,1.5233,-0.1334,0.4106,1.583
12.444,-1.9328,-0.2008,-1.4579,2.429
12.444,-0.9761,-0.213,-0.3937,1.074
12.444,0.8141,-0.2205,0.5067,0.984
12.444,1.2743,-0.0129,0.6315,1.422
12.444,0.1381,0.3236,-0.2618,0.439
12.444,-2.7695,0.2275,-1.644,3.229
12.444,-0.5073,0.1531,0.1781,0.559
12.444,0.4406,0.1528,0.5807,0.745
12.445,0.7805,0.1621,0.4211,0.902
12.445,-1.4367,0.3435,-0.8404,1.699
12.445,-1.4365,0.3432,-0.8412,1.7
12.445,-1.4363,0.3429,-0.8421,1.7
12.445,-1.4349,0.3425,-0.8429,1.699
12.445,-1.4336,0.3421,-0.8439,1.698
12.445,-1.433,0.3418,-0.8453,1.698
12.445,-1.432,0.3414,-0.8467,1.698
12.445,0.3906,-0.0246,0.0533,0.395
12.446,0.297,-0.1991,-0.0968,0.37
12.446,0.2444,-0.206,-0.1175,0.341
12.446,0.1012,-0.1891,-0.1548,0.265
12.446,-0.0801,-0.2224,-0.2231,0.325
12.446,-0.2136,-0.258,-0.2436,0.414
12.446,-0.2877,-0.2792,-0.264,0.48
12.446,-0.3429,-0.2812,-0.2248,0.497
12.446,-0.3819,-0.2234,-0.224,0.496
12.446,-0.4741,-0.168,-0.2114,0.546
12.447,-0.45,-0.1197,-0.1462,0.488
12.447,-0.4316,-0.093,-0.0741,0.448
12.447,-0.397,-0.0399,-0.0332,0.4
12.447,-0.4034,0.0299,0.0268,0.405
12.447,-0.3859,0.1091,0.077,0.408
12.447,-0.3651,0.1857,0.1727,0.445
12.447,-0.3771,0.2073,0.2134,0.48
12.447,-0.3348,0.1739,0.2279,0.441
12.447,-0.2959,0.186,0.1924,0.399
12.448,-0.2388,0.2556,0.1811,0.394
12.448,-0.2062,0.3466,0.1151,0.419
12.448,-0.1659,0.4614,0.0111,0.49
12.448,-0.2251,0.4469,-0.0186,0.501
12.448,-0.0683,0.461,-0.0484,0.469
12.448,0.0084,0.377,0.0367,0.379
12.448,0.0625,0.2523,0.0981,0.278
12.451,0.1934,0.1899,0.2026,0.338
12.456,0.4189,-0.0516,0.2856,0.51
12.459,0.7041,-0.2065,0.4025,0.837
12.464,1.1574,-0.2369,0.3263,1.226
12.469,1.1328,-0.1334,0.3177,1.184
12.474,0.9902,-0.1378,0.1996,1.02
12.48,0.894,-0.2115,0.0746,0.922
12.485,0.9108,-0.2733,0.0525,0.952
12.49,0.921,-0.2944,0.0373,0.968
12.495,0.8099,-0.3322,0.0242,0.876
12.499,0.7493,-0.3342,0.0109,0.821
12.503,0.7031,-0.3147,0.0045,0.77
12.509,0.6258,-0.2928,-0.0498,0.693
12.515,0.556,-0.2423,-0.0709,0.611
12.52,0.446,-0.2086,-0.0756,0.498
12.525,0.3176,-0.1152,-0.0519,0.342
12.528,0.2495,-0.0531,-0.0238,0.256
36.824,0.251,-0.0532,-0.0246,0.258
36.824,0.186,-0.0175,0.0246,0.188
36.825,0.1665,0.0062,0.0855,0.187
36.825,0.1734,0.0203,0.1105,0.207
36.825,0.1707,0.0415,0.1139,0.209
36.825,0.127,0.0628,0.1174,0.184
36.825,0.0951,0.0888,0.0825,0.154
36.825,0.0009,0.0718,0.0595,0.093
36.826,-0.1368,0.0765,0.0004,0.157
36.826,-0.2487,0.0763,-0.0445,0.264
36.826,-0.3038,0.0619,-0.044,0.313
36.826,-0.3523,0.0524,-0.0221,0.357
36.826,-0.4157,0.0119,0.0046,0.416
36.826,-0.4796,0.0073,-0.0119,0.48
36.826,-0.4602,-0.0283,-0.0046,0.461
36.827,-0.4029,-0.0519,-0.0019,0.406
36.827,-0.3505,-0.0682,0.0677,0.363
36.827,-0.2818,-0.0487,0.1232,0.311
36.827,-0.1271,-0.12,0.1933,0.261
36.827,-0.0058,-0.1267,0.1655,0.209
36.828,0.013,-0.1263,0.1668,0.21
36.828,-0.0254,-0.1498,0.1562,0.218
36.828,-0.0731,-0.1804,0.129,0.234
36.828,-0.1013,-0.2302,0.1281,0.282
36.828,-0.1895,-0.2584,0.137,0.348
36.828,-0.5625,-0.2315,0.249,0.657
36.829,0.4235,-0.2191,0.0238,0.477
36.829,0.1373,-0.0729,0.0764,0.173
36.829,0.268,0.1925,0.2298,0.402
36.829,0.5837,0.3069,0.362,0.752
36.829,0.6708,0.1486,0.4181,0.804
36.829,0.067,-0.1576,0.6038,0.628
36.829,0.6977,0.2295,0.5794,0.936
36.83,0.4248,-0.108,-0.1459,0.462
36.83,0.1282,-0.23,-0.398,0.477
36.83,0.0444,-0.0842,-0.4043,0.415
36.83,-0.0609,-0.0174,-0.284,0.291
36.83,-0.3665,0.0827,-0.2744,0.465
36.83,-0.6716,0.0059,-0.2316,0.71
36.831,-0.6299,-0.2477,-0.1816,0.701
36.831,-0.5792,-0.5033,-0.134,0.779
36.831,-0.28,-0.7156,-0.0719,0.772
36.831,-0.3316,-0.7195,0.0215,0.793
36.832,-1.7184,-0.7039,0.1249,1.861
36.832,-0.4064,-1.1686,0.1087,1.242
36.832,0.7163,-0.4977,-0.3694,0.947
36.833,0.8948,-0.0977,-0.2325,0.93
36.833,0.6869,-0.0234,-0.0957,0.694
36.833,1.0663,0.2347,-0.0884,1.095
36.833,1.1217,0.2175,-0.2491,1.169
36.834,1.1189,0.1739,-0.329,1.179
36.834,1.2778,0.3309,0.0176,1.32
36.834,0.3183,0.5689,0.8667,1.085
36.834,0.0733,0.331,0.5346,0.633
36.835,0.5251,0.2558,-0.2068,0.62
36.835,0.3562,0.606,-0.7889,1.057
36.835,0.2506,0.4012,-1.1643,1.257
36.835,0.3265,0.2397,-0.8608,0.951
36.836,-0.3273,0.5325,0.153,0.644
36.836,-0.5729,0.4906,0.7938,1.095
36.836,-0.5183,-0.0077,0.9748,1.104
36.837,-0.3885,-0.1443,0.5217,0.666
36.837,-0.7072,0.4363,0.467,0.953
36.837,-1.0219,0.089,0.0801,1.029
36.837,-0.5864,-0.3964,-0.4197,0.823
36.838,-0.4364,-0.2502,-0.7168,0.876
36.838,-0.5667,-0.0827,-0.5192,0.773
36.838,-0.4678,-0.214,-0.4273,0.669
36.838,-0.4413,-0.2496,-0.2518,0.566
36.839,-0.3625,-0.0699,0.0481,0.372
36.839,0.0197,-0.1104,0.2526,0.276
36.839,0.2727,-0.041,0.4958,0.567
36.84,0.1815,0.2005,0.5363,0.601
36.84,0.0403,0.0759,0.3025,0.314
36.84,-0.2208,-0.0221,0.0548,0.229
36.84,-0.4606,-0.0746,-0.2145,0.514
36.841,-0.6435,-0.1125,-0.4651,0.802
36.841,-0.8417,-0.1241,-0.4436,0.96
36.842,-1.1824,-0.1545,-0.1856,1.207
36.842,-1.2756,-0.0845,0.0124,1.278
36.842,0.1382,0.0164,-0.4168,0.439
36.842,0.3037,0.1602,-0.5402,0.64
36.843,0.1005,0.1652,0.0545,0.201
36.843,-1.7188,0.2684,0.8582,1.94
36.843,-0.2042,0.0967,0.5839,0.626
36.844,0.5596,0.0518,0.2309,0.608
36.844,0.9299,0.1596,-0.0406,0.944
36.844,0.2942,0.3964,0.0519,0.496
36.844,0.0333,0.4367,-0.0756,0.444
36.844,-0.1509,0.3717,-0.3854,0.556
36.844,-0.7716,0.2827,-0.389,0.909
36.845,-0.7267,-0.0401,-0.3304,0.799
36.845,0.1604,-0.1736,-0.1979,0.308
36.845,-0.6132,-0.1752,0.5399,0.836
36.845,1.2608,-0.5401,0.2796,1.4
36.845,1.8906,-0.4939,0.1166,1.958
36.846,1.2261,-0.5219,0.0581,1.334
36.846,0.4266,-0.4113,0.0975,0.601
36.846,-0.1354,-0.4562,0.1009,0.486
36.846,-0.3077,-0.36,0.0208,0.474
36.846,-0.4399,-0.2591,0.0751,0.516
36.846,-0.4652,-0.2658,0.0649,0.54
36.846,-0.4336,-0.313,0.0282,0.536
36.847,-0.3286,-0.3673,0.0417,0.495
36.847,-0.5281,0.0112,0.0317,0.529
36.847,-0.4506,0.2315,-0.0017,0.507
36.847,-0.0698,-0.0098,-0.1404,0.157
36.847,-0.3253,-0.124,0.0006,0.348
36.847,0.333,-0.035,-0.0956,0.348
36.848,0.4751,0.1972,-0.1347,0.532
36.848,0.6442,0.2904,-0.0638,0.71
36.848,0.673,0.369,-0.0168,0.768
36.848,0.6166,0.371,0.0444,0.721
36.848,0.542,0.1554,0.0194,0.564
36.848,0.3174,-0.0336,0.0084,0.319
36.848,0.1147,-0.0743,0.1096,0.175
36.849,0.0533,-0.1245,0.1223,0.182
36.849,-0.0869,-0.0742,0.1209,0.166
36.849,-0.1532,-0.0933,0.0695,0.192
36.849,-0.136,-0.0549,0.0016,0.147
36.849,-0.3822,-0.019,-0.0303,0.384
36.85,-0.4324,-0.093,0.1027,0.454
36.85,0.3139,-0.2769,-0.0227,0.419
36.85,-0.0426,-0.2407,-0.1121,0.269
36.85,0.0604,-0.2548,-0.027,0.263
36.85,0.0726,-0.1589,0.0704,0.188
36.85,-0.1306,-0.0751,0.1875,0.241
36.85,-0.1261,0.0135,0.1804,0.22
36.851,0.1558,0.0398,-0.0515,0.169
36.851,0.0094,0.078,-0.1138,0.138
36.851,-0.1368,0.0135,-0.0952,0.167
36.851,-0.1515,-0.1275,-0.053,0.205
36.851,-0.1542,-0.1799,0.0128,0.237
36.851,-0.121,-0.1366,0.0259,0.184
36.852,-0.095,-0.036,0.0629,0.12
36.852,-0.0189,0.0502,0.038,0.066
36.852,0.0092,0.1672,0.0707,0.182
36.852,-0.013,0.2914,0.051,0.296
36.852,0.0892,0.315,0.0336,0.329
36.852,0.213,0.2214,-0.0344,0.309
36.853,0.3587,0.0825,-0.1244,0.389
36.853,0.414,0.0393,-0.2101,0.466
36.853,0.4122,0.0655,-0.2292,0.476
36.853,0.2959,0.1537,-0.1696,0.374
36.853,0.2037,0.2585,-0.0693,0.336
36.853,0.1234,0.2748,-0.0287,0.303
36.853,0.0218,0.2075,0.0072,0.209
36.854,0.0497,0.0661,-0.0095,0.083
36.854,0.0969,-0.1397,-0.05,0.177
36.854,0.0415,-0.2975,-0.081,0.311
36.854,-0.0279,-0.3953,-0.0926,0.407
36.854,-0.0807,-0.3257,-0.0418,0.338
36.854,-0.0739,-0.1558,0.0166,0.173
36.854,-0.0504,-0.0387,0.0396,0.075
36.855,0.0735,-0.101,0.0221,0.127
36.855,0.1306,-0.1536,-0.0647,0.212
36.855,0.2042,-0.2875,-0.185,0.398
36.855,-3.5756,-0.6717,-0.2176,3.645
36.855,0.2732,-0.9313,0.361,1.035
36.856,0.9352,0.0306,-0.1267,0.944
36.856,0.5051,0.7354,-0.4871,1.016
36.856,0.5644,0.7654,-0.4217,1.04
36.856,0.7974,0.8644,-0.0666,1.178
36.856,0.4049,0.8126,0.2866,0.952
36.856,0.386,0.4263,0.3727,0.685
36.856,0.3456,-0.0456,0.1363,0.374
36.857,0.0049,-0.2825,-0.0632,0.29
36.857,-0.4712,-0.3994,-0.3358,0.703
36.857,-0.4597,-0.0024,-0.4108,0.616
36.857,-0.5778,0.2939,-0.0494,0.65
36.857,-0.7413,0.3795,0.1841,0.853
36.895,-0.7278,0.3933,0.4382,0.936
36.896,-0.5615,0.2207,0.5032,0.786
36.896,-0.5463,0.0436,0.2986,0.624
36.896,-0.4143,-0.1094,0.0347,0.43
36.896,-0.1678,-0.2168,-0.3797,0.468
36.896,-0.2204,-0.2212,-0.5383,0.622
36.896,-0.1802,-0.2424,-0.6238,0.693
36.896,-0.1186,-0.297,-0.6189,0.697
36.896,-0.0285,-0.3538,-0.4364,0.563
36.897,-0.4782,-0.5085,-0.0252,0.698
36.897,-1.748,-0.6126,0.9729,2.092
36.897,0.0189,-0.5159,0.9898,1.116
36.897,0.1562,0.0491,0.4483,0.477
36.897,1.4072,0.5582,-0.1732,1.524
36.897,1.3067,0.6195,-0.5337,1.541
36.897,1.1348,0.5586,-0.4737,1.351
36.897,1.0056,0.4569,-0.3475,1.158
36.898,0.2297,0.3601,-0.2169,0.479
36.898,0.0738,0.1177,-0.0865,0.164
36.898,0.128,0.0022,-0.0301,0.132
36.898,0.1118,-0.1584,0.0373,0.197
36.898,-0.0801,-0.3283,-0.3027,0.454
36.898,0.099,-0.2423,-0.4543,0.524
36.898,0.1469,-0.1708,-0.1526,0.272
36.898,-0.1205,-0.085,0.2604,0.299
36.898,-0.4523,-0.0113,0.5415,0.706
36.899,-0.6359,-0.0905,0.5786,0.864
36.899,-0.643,-0.1888,0.4606,0.813
36.899,-0.7129,-0.2796,0.202,0.792
36.899,-0.5898,-0.27,-0.0966,0.656
36.899,-0.496,-0.2197,-0.2994,0.62
36.899,-0.4337,-0.1263,-0.3301,0.559
36.899,-0.3743,-0.0642,-0.2031,0.431
36.899,-0.3225,-0.0045,-0.0619,0.328
36.899,-0.2064,0.0552,0.029,0.216
36.9,-0.0834,0.1411,0.0961,0.19
36.9,-0.1142,0.2293,0.1082,0.278
36.9,-3.2614,-0.2748,0.843,3.38
36.9,-0.7439,-0.4604,1.3844,1.638
36.9,0.8312,0.2502,-0.4219,0.965
36.9,1.0278,0.3384,-1.3454,1.727
36.9,0.8703,0.1633,-1.1624,1.461
36.9,0.1453,0.2944,-0.4854,0.586
36.9,-0.0669,0.3367,0.1697,0.383
36.901,-0.0945,0.446,0.4349,0.63
36.901,-0.2919,0.3973,0.411,0.642
36.901,-0.2979,0.2818,0.2726,0.492
36.901,-0.1698,0.09,0.0914,0.213
36.901,-0.1493,-0.1184,-0.0492,0.197
36.901,-0.2793,-0.2022,0.047,0.348
36.902,-0.438,-0.348,-0.0005,0.559
36.902,-0.2832,-0.2953,-0.146,0.434
36.902,-0.1618,-0.1782,-0.3106,0.393
36.902,0.0078,-0.0732,-0.3939,0.401
36.902,0.123,-0.0377,-0.3169,0.342
36.902,0.2387,-0.0166,-0.1153,0.266
36.902,0.3528,0.0521,0.0864,0.367
36.902,0.3719,0.0897,0.219,0.441
36.902,0.3007,0.0578,0.3428,0.46
36.903,-0.4067,0.0188,0.5418,0.678
36.903,-0.9114,0.0063,0.4499,1.016
36.903,-0.7306,-0.1279,-0.0174,0.742
36.903,-0.2274,0.0438,-0.5069,0.557
36.903,-0.0231,0.182,-0.605,0.632
36.903,-0.1488,0.2458,-0.3758,0.473
36.903,-0.3677,0.1543,-0.1182,0.416
36.903,-0.4407,0.0533,0.1746,0.477
36.903,-0.3226,-0.1049,0.4476,0.562
36.904,-0.1544,-0.1817,0.6315,0.675
36.904,-0.1205,-0.2296,0.691,0.738
36.904,-0.2447,-0.3014,0.447,0.592
36.904,-0.5225,-0.4136,0.0572,0.669
36.904,-0.7579,-0.4587,-0.3353,0.947
36.904,-0.8959,-0.4463,-0.5776,1.156
36.904,-0.9031,-0.3718,-0.6433,1.169
36.904,-0.9565,-0.3331,-0.4651,1.115
36.904,-0.8862,-0.2466,-0.2486,0.953
36.904,-0.6131,-0.1817,-0.0727,0.644
36.905,-0.3041,-0.1743,0.0121,0.351
36.905,0.979,0.0552,-0.42,1.067
36.905,1.7945,0.6165,-0.7515,2.041
36.905,0.1289,0.5102,-0.0643,0.53
36.905,0.301,0.3205,0.1845,0.477
36.905,0.3682,0.2432,0.2894,0.528
36.905,0.1679,0.1183,0.2819,0.349
36.905,0.1306,0.0269,0.1744,0.22
36.905,0.0481,0.0002,0.0219,0.053
36.906,0.0304,-0.0002,-0.1063,0.111
36.906,0.1374,0.0113,-0.1243,0.186
36.906,0.1585,0.0371,-0.0562,0.172
36.906,-0.0693,0.0319,0.1196,0.142
36.906,-0.4146,0.0123,0.3671,0.554
36.906,-0.7319,-0.0477,0.6196,0.96
36.906,-0.9114,-0.1674,0.7002,1.161
36.906,-0.9916,-0.4899,0.633,1.274
36.906,-1.054,-0.7929,0.3221,1.358
36.907,-0.8639,-0.9114,-0.0676,1.258
36.907,-0.6221,-0.6641,-0.3565,0.977
36.907,-0.3354,-0.1542,-0.516,0.634
36.907,-0.0132,0.3336,-0.618,0.702
36.907,0.0554,0.565,-0.4832,0.746
36.907,0.1552,0.5978,-0.2198,0.656
36.907,0.4153,0.4728,-0.1124,0.639
36.907,0.5658,0.2547,-0.0413,0.622
36.908,0.5276,0.1827,0.0393,0.56
36.908,0.4373,0.2565,0.1224,0.522
36.908,0.4264,0.2919,0.1578,0.54
36.908,0.4306,0.2818,0.107,0.526
36.908,0.3516,0.255,0.0729,0.44
36.908,0.3043,0.2043,0.01,0.367
36.908,0.2093,0.1752,-0.0333,0.275
36.908,0.0591,0.1055,-0.1236,0.173
36.908,0.0117,0.0573,-0.295,0.301
36.908,-0.0622,0.0667,-0.1843,0.206
36.909,-0.1675,0.0521,-0.0022,0.175
36.909,-0.1988,0.04,0.1484,0.251
36.909,-0.2448,0.0374,0.2294,0.338
36.909,-0.2241,0.0278,0.2385,0.328
36.909,-0.1796,-0.0345,0.1374,0.229
36.909,-0.114,-0.1229,0.0505,0.175
36.909,-0.075,-0.2016,-0.003,0.215
36.909,0.0353,-0.2755,-0.0445,0.281
36.909,0.2146,-0.2727,-0.0909,0.359
36.91,0.3575,-0.2628,-0.1806,0.479
36.91,0.3232,-0.2099,-0.2251,0.446
36.91,0.2956,-0.1689,-0.3033,0.456
36.91,0.1266,-0.0969,-0.2812,0.323
36.91,-0.0451,0.0444,-0.3022,0.309
36.91,-0.2502,0.14,-0.328,0.436
36.91,-0.417,0.066,-0.4352,0.606
36.91,-2.5586,0.1354,0.2121,2.571
36.91,-1.5063,-0.0245,1.8271,2.368
36.911,-1.3441,-0.0551,1.2542,1.839
36.911,-0.7197,-0.1597,-0.2663,0.784
36.911,-2.9338,0.0205,-0.3487,2.954
36.911,-2.6438,-0.2892,0.4444,2.696
36.911,-0.3483,-0.1468,0.0297,0.379
36.911,-0.8517,-0.3797,-1.0666,1.417
36.912,-0.1903,-0.3159,-0.8363,0.914
36.912,0.1992,-0.2547,-0.3946,0.51
36.912,2.0534,0.1552,-0.0421,2.06
36.912,0.8629,0.4593,-0.0507,0.979
36.912,1.3818,0.347,0.5292,1.52
36.912,0.2505,0.0914,0.6785,0.729
36.912,2.1197,-0.0446,0.2352,2.133
36.913,2.0758,-0.1065,-0.4638,2.13
36.913,0.7749,-0.0704,-1.3232,1.535
36.913,-1.0005,-0.5434,0.6166,1.295
36.913,2.954,-0.2656,0.2147,2.974
36.913,1.6011,0.2553,-0.9133,1.861
36.913,-0.0844,0.1208,-0.6914,0.707
36.913,0.6471,0.1418,-0.3281,0.739
36.913,-1.3597,-0.2721,-0.248,1.409
36.914,1.9424,0.3731,-1.1743,2.3
36.914,-1.4333,-0.2801,-1.1629,1.867
36.914,-0.0535,-0.1223,-0.5213,0.538
36.914,2.2122,0.1522,-0.7078,2.328
36.914,1.3674,0.1514,-1.5888,2.102
36.914,-1.2273,-0.3367,-1.3138,1.829
36.914,-3.7655,-1.0031,1.4865,4.171
36.915,1.2936,-0.4905,2.4505,2.814
36.915,-0.9731,-0.2248,2.4988,2.691
36.915,-1.1006,-0.0048,3.3162,3.494
36.915,1.3539,-0.0482,2.329,2.694
36.915,2.2426,0.3861,-0.9943,2.483
36.915,-1.7275,-0.0211,-1.1242,2.061
36.916,-1.8853,0.0694,-0.4136,1.931
36.916,0.2832,0.2864,0.2786,0.49
36.916,1.0164,0.5032,-0.4829,1.233
36.916,-0.3671,0.5094,-0.894,1.092
36.916,-0.8185,0.6758,-0.4782,1.164
36.916,-0.9336,0.4407,0.4013,1.108
36.916,-0.7263,0.4138,0.7621,1.131
36.916,-0.6744,0.2697,0.8291,1.102
36.917,-0.7461,0.188,0.6207,0.989
36.917,-0.3007,-0.0132,0.431,0.526
36.917,-0.0466,-0.2739,-0.0266,0.279
36.917,-0.2139,-0.3693,-0.3173,0.532
36.917,-0.5496,-0.2281,-0.3725,0.702
36.917,-0.6693,-0.0941,-0.8832,1.112
36.917,-0.4676,-0.1634,-1.3868,1.473
36.917,-0.3558,-0.1728,-1.6416,1.689
36.918,-0.1464,-0.3207,-1.5949,1.633
36.918,0.2281,-0.368,-1.2766,1.348
36.918,0.541,-0.3483,-0.6934,0.946
36.918,0.7688,-0.2236,-0.1879,0.822
36.918,0.883,-0.0657,0.2106,0.91
36.918,0.9101,0.2114,0.2758,0.974
36.918,0.8978,0.378,0.2547,1.007
36.919,0.8392,0.1716,0.2667,0.897
36.919,0.6406,-0.018,0.2562,0.69
36.919,0.263,0.0818,0.246,0.369
36.919,0.0214,-0.1745,0.2974,0.346
36.919,-1.1664,-1.121,0.7849,1.798
36.919,-2.9854,-2.0302,1.562,3.934
36.919,-3.2459,-1.4586,0.8885,3.668
36.92,-2.2665,-0.5339,-0.3447,2.354
36.92,-1.0785,0.5355,-1.2738,1.753
36.92,-0.3188,1.429,-0.7367,1.639
36.92,-0.4873,1.4611,0.5539,1.637
36.92,-0.8456,0.5898,1.6624,1.956
36.92,-0.8203,0.0877,1.7731,1.956
36.92,0.2327,0.1288,1.0108,1.045
36.92,1.0296,0.5498,-0.122,1.174
36.921,1.4544,0.9152,-0.7901,1.891
36.921,0.8736,0.9837,-0.9753,1.638
36.921,0.7388,0.8132,-0.9884,1.478
36.921,0.8278,0.399,-0.8391,1.244
36.921,1.0089,0.045,-0.5774,1.163
36.921,1.1122,-0.1175,-0.2868,1.155
36.921,1.0086,-0.1174,-0.0604,1.017
36.921,0.8892,-0.1938,0.0541,0.912
36.921,0.5672,-0.3872,0.0538,0.689
36.922,0.0278,-0.2626,0.1205,0.29
36.922,-0.0979,-0.1619,0.1517,0.243
36.922,-0.0107,-0.2502,0.171,0.303
36.922,-0.1867,-0.293,0.1018,0.362
36.922,-0.3363,-0.233,0.1188,0.426
36.922,-0.3019,-0.1921,0.1788,0.4
36.922,-0.2078,-0.1943,0.2795,0.399
36.922,-0.1664,-0.1487,0.3398,0.406
36.922,-0.161,-0.029,0.3476,0.384
36.923,-0.1102,0.045,0.2697,0.295
36.923,-0.1481,0.162,0.1274,0.254
36.923,-0.1262,0.1881,0.0522,0.232
36.923,-0.0901,0.1687,0.0104,0.192
36.923,-0.0492,0.0848,0.0116,0.099
36.923,-0.0224,-0.1161,0.0461,0.127
36.923,0.05,-0.2571,0.0446,0.266
36.923,0.1155,-0.3142,0.0001,0.335
36.923,0.215,-0.2661,-0.0156,0.342
36.924,0.2359,-0.1464,-0.067,0.286
36.924,0.2476,-0.0843,-0.099,0.28
36.924,0.2743,-0.0438,-0.1619,0.321
36.924,0.3709,-0.0464,-0.1985,0.423
36.924,0.4515,-0.0658,-0.2328,0.512
36.924,0.5258,-0.1139,-0.2124,0.578
36.924,0.6178,-0.1596,-0.1586,0.658
36.924,0.6416,-0.0977,-0.1837,0.675
36.924,0.243,-0.1507,-0.1826,0.339
36.924,0.0194,-0.0793,-0.0381,0.09
36.925,-0.1566,0.2453,0.104,0.309
36.925,-0.3523,0.4333,0.0816,0.564
36.925,-0.5175,0.4921,0.1219,0.724
36.925,-0.6406,0.441,0.1719,0.797
36.925,-0.7217,0.3923,0.2172,0.85
36.925,-0.7414,0.3032,0.2503,0.839
36.925,-0.6927,0.1664,0.2639,0.76
36.926,-0.6064,0.0681,0.1837,0.637
36.926,-0.468,0.0417,0.0909,0.479
36.926,-0.3184,-0.0373,0.0122,0.321
36.926,-0.26,-0.0947,-0.026,0.278
36.926,-0.2667,-0.1041,-0.0137,0.287
36.926,-0.2236,-0.0944,0.0203,0.244
36.926,-0.0601,-0.0942,-0.0169,0.113
36.926,-3.7139,0.3386,1.5679,4.045
36.927,3.5297,-0.2139,-1.1042,3.705
36.927,3.52,0.1279,-1.5981,3.868
36.927,-4.5132,0.5269,0.7804,4.61
36.927,0.8992,-0.346,0.9419,1.347
36.928,0.0142,-0.4006,-0.274,0.486
36.928,3.5641,-0.4075,-1.1374,3.763
36.928,5.0467,-0.484,-2.5855,5.691
36.928,-2.5036,0.2022,0.7071,2.609
36.928,-4.6986,-0.0323,2.7425,5.441
36.928,-0.8714,-0.4959,1.1556,1.53
36.928,1.4838,-0.2326,-0.345,1.541
36.929,1.0723,0.1833,-0.6554,1.27
36.929,-0.2547,0.2642,-0.3445,0.503
36.929,-0.9027,0.1324,0.0431,0.913
36.929,-0.7361,-0.0304,0.1418,0.75
36.929,-0.214,-0.1092,-0.0581,0.247
36.929,0.1235,-0.1426,-0.2295,0.297
36.929,0.0041,-0.14,-0.179,0.227
36.929,-0.2231,-0.0872,-0.0046,0.24
36.93,-0.2663,-0.025,0.1075,0.288
36.93,-0.1998,0.0611,0.1268,0.244
36.93,-0.0762,0.1423,-0.0185,0.163
36.93,0.0209,0.1111,-0.1015,0.152
36.93,0.1013,0.0919,-0.1441,0.199
36.93,0.0428,0.1181,-0.0457,0.134
36.93,0.0585,0.1539,0.103,0.194
36.93,0.2966,0.0533,-0.0641,0.308
36.931,0.2072,0.0007,-0.0328,0.21
36.931,0.1034,-0.0447,0.1013,0.151
36.931,0.0882,-0.0613,0.1875,0.216
36.931,0.3289,-0.1186,-0.0226,0.35
36.931,0.2038,-0.0969,-0.046,0.23
36.931,0.0117,-0.092,0.0813,0.123
36.931,-0.085,-0.0703,0.1345,0.174
36.931,-0.0265,-0.0343,0.1044,0.113
36.932,-0.0924,0.0518,0.0722,0.128
36.932,0.105,0.1498,-0.2997,0.351
36.932,0.566,0.238,-0.3084,0.687
36.932,0.6665,0.1253,-0.3079,0.745
36.932,1.1055,0.1609,-0.7432,1.342
36.932,1.2638,-0.186,-0.3133,1.315
36.932,0.3154,-1.0248,0.4673,1.17
36.932,-0.3387,-0.161,0.5141,0.636
36.932,-0.1928,-0.18,1.4112,1.436
36.933,-1.1513,0.0137,0.8079,1.407
36.933,-1.578,0.9721,-0.0595,1.854
36.933,-0.5872,1.8099,-1.1037,2.2
36.933,0.7008,1.1887,-0.5539,1.487
36.933,0.0775,-1.3173,0.0752,1.322
36.933,-1.8599,-1.3824,-0.2969,2.336
36.933,-1.4381,-0.7111,-0.2105,1.618
36.933,-0.1179,-0.1865,-0.0214,0.222
36.934,0.6473,0.0792,0.2401,0.695
36.934,0.5449,0.0483,0.2634,0.607
36.934,0.2015,0.0484,0.151,0.256
36.934,0.1384,0.0078,-0.0258,0.141
36.934,0.2097,-0.1832,-0.2148,0.352
36.934,0.2431,-0.2999,-0.3589,0.527
36.934,0.2147,-0.223,-0.3624,0.477
36.934,0.2178,0.0499,-0.237,0.326
36.934,0.1569,0.2052,-0.114,0.282
36.934,0.1732,0.2217,-0.0028,0.281
36.935,1.0564,0.6802,0.9,1.546
36.935,1.3951,0.3733,1.5272,2.102
36.935,0.8109,0.0477,0.8362,1.166
36.935,0.3681,0.1574,0,0.4
36.935,0.0164,0.2766,-0.6487,0.705
36.935,-0.1844,0.2953,-0.9724,1.033
36.935,-0.0528,0.216,-0.7801,0.811
36.935,1.4896,0.8105,3.9566,4.305
36.936,4.0757,2.463,8.2465,9.523
36.936,0.8481,0.3757,-2.6472,2.805
36.936,-2.0881,0.0668,-3.2233,3.841
36.936,-2.1761,-0.3923,-2.9979,3.725
36.936,-1.3466,-0.7767,-2.5519,2.988
36.936,-1.2371,-1.2823,-1.7268,2.481
36.937,-0.8518,-1.2877,-1.4451,2.115
36.937,-0.4506,-1.0948,-1.3253,1.777
36.937,-0.1936,-0.9474,-0.7846,1.245
36.937,0.0222,-0.8839,-0.3413,0.948
36.937,0.1205,-0.7823,-0.0959,0.797
36.937,-0.057,-0.9484,-0.1418,0.961
36.937,-0.1395,-0.9421,-0.1017,0.958
36.937,0.1363,-0.2261,0.1724,0.315
36.937,-0.1849,-0.6269,0.152,0.671
36.938,-0.308,-0.468,0.2227,0.603
36.938,0.077,0.2307,0.612,0.659
36.938,0.1334,0.79,0.9494,1.242
36.938,0.5588,0.7582,1.2638,1.576
36.938,0.6771,1.0464,1.1726,1.711
36.938,0.3617,1.2982,0.7161,1.526
36.938,-0.0772,1.1984,0.4656,1.288
36.938,0.0649,0.7426,0.4979,0.896
36.939,0.1923,0.6148,0.5689,0.859
36.939,0.114,0.6926,0.7523,1.029
36.939,1.0401,0.4979,0.1442,1.162
36.939,0.579,0.4731,0.3039,0.807
36.939,0.204,0.3887,0.2962,0.53
36.939,0.094,0.228,0.0164,0.247
36.939,-6.374,1.8457,3.4398,7.474
36.939,6.1066,-1.0056,-3.1569,6.948
36.94,-0.1311,-1.0475,-2.1125,2.362
36.94,-2.5672,-2.3891,0.0104,3.507
36.94,-0.1233,-1.9653,-1.1737,2.292
36.94,0.2149,-0.9684,-1.1077,1.487
36.94,0.2422,-0.3075,-0.1714,0.427
36.94,0.3774,0.4958,1.0331,1.206
36.94,0.3084,0.6336,0.7125,1.002
36.941,0.6508,-1.0809,-0.8075,1.498
36.941,-0.6962,-0.6925,-0.6796,1.194
36.941,0.0594,0.4864,-0.5569,0.742
36.941,0.279,0.5956,-0.0066,0.658
36.941,-0.0255,0.0977,0.0122,0.102
36.941,-0.2682,-0.0793,-0.0146,0.28
36.941,-0.3871,-0.1413,0.0422,0.414
36.941,-0.3399,-0.0312,0.0873,0.352
36.941,-0.5202,0.1986,0.0491,0.559
36.942,0.056,-0.1763,0.0523,0.192
36.942,0.3278,-0.4625,0.075,0.572
36.942,-0.0475,-0.3541,-0.01,0.357
36.942,-0.2947,-0.4134,0.2179,0.552
36.942,-0.2647,-0.1357,-0.2772,0.407
36.942,-0.1533,0.0532,-0.2656,0.311
36.942,0.1638,-0.0162,-0.0315,0.168
36.942,-0.1219,0.0769,0.203,0.249
36.942,-0.341,0.1437,0.225,0.433
36.942,-1.8446,-0.1646,0.1662,1.859
36.943,-1.6525,-0.924,-0.1597,1.9
36.943,-0.1836,0.0907,-0.7274,0.756
36.943,0.9181,0.9343,-0.1721,1.321
36.943,0.9261,0.699,0.2605,1.189
36.943,0.6868,0.3635,0.1907,0.8
36.943,0.4196,0.0714,0.0371,0.427
36.943,0.2822,-0.0793,0.0774,0.303
36.943,0.3963,-0.0411,-0.0113,0.399
36.943,0.391,0.1428,-0.0523,0.42
36.944,0.3719,0.2668,-0.019,0.458
36.944,0.4632,0.2137,0.0096,0.51
36.944,0.4447,0.1654,-0.0813,0.481
36.944,0.3189,0.1674,0.0385,0.362
36.944,0.2554,0.1454,0.1444,0.327
36.944,0.0839,0.1283,0.0881,0.177
36.944,0.1707,0.0825,-0.1085,0.218
36.944,0.068,3.5642,-1.0876,3.727
36.944,3.1613,0.0156,-1.4709,3.487
36.945,0.2847,-3.5281,0.3748,3.559
36.945,-2.2138,-3.2553,1.6618,4.273
36.945,-1.0389,-1.2244,0.882,1.832
36.945,0.1269,0.4523,-0.1924,0.508
36.945,-0.7241,1.4146,-0.3148,1.62
36.945,-0.6965,0.6168,-0.101,0.936
36.945,-0.06,-0.1369,-0.2018,0.251
36.945,0.2315,-0.1847,-0.3484,0.457
36.946,0.272,-0.0747,-0.3141,0.422
36.946,0.2839,-0.3161,0.0812,0.433
36.946,0.3029,-0.5334,0.4393,0.755
36.946,0.6165,-0.3776,0.1646,0.741
36.946,-0.6368,0.0887,0.5625,0.854
36.946,-1.2059,-0.1648,0.6655,1.387
36.946,-0.1811,0.1269,-0.9954,1.02
36.946,0.8587,0.975,0.2254,1.319
36.946,2.2682,0.2639,-0.4923,2.336
36.947,2.2651,-0.0136,-0.4001,2.3
36.947,1.749,0.2184,-0.278,1.784
36.947,0.5725,0.1302,-0.3677,0.693
36.947,0.5503,-0.1011,-0.1324,0.575
36.948,-2.0938,1.6997,2.1599,3.455
36.948,0.8341,-0.1677,-0.8659,1.214
36.948,0.7747,-0.4819,-0.809,1.219
36.948,0.1307,-0.2916,-0.1719,0.363
36.948,-0.3283,-0.2642,0.0823,0.429
36.948,-0.8075,0.2292,0.0758,0.843
36.948,-0.7835,0.3778,0.2798,0.914
36.949,-0.6869,0.519,-0.1863,0.881
36.949,-0.4568,0.5717,-0.3536,0.813
36.949,-2.4732,1.9295,1.3336,3.409
36.949,0.6856,-0.3733,-1.0172,1.282
36.949,0.3812,-1.5837,-0.7251,1.783
36.95,-0.5169,-1.1797,0.0304,1.288
36.95,-0.7422,-0.5995,0.4644,1.061
36.95,-1.0052,-0.1228,0.3695,1.078
36.95,-1.1688,0.0929,0.4489,1.255
36.95,-0.795,0.3585,0.3288,0.932
36.95,-0.4531,0.2893,-0.0596,0.541
36.95,0.1299,0.1938,-0.1491,0.277
36.951,0.4134,0.3853,-0.2509,0.618
36.951,0.6175,-0.6232,-0.3979,0.963
36.951,0.2534,-0.5072,-0.0891,0.574
36.951,0.058,-0.3318,0.1303,0.361
36.952,-0.1903,-0.2401,0.2033,0.368
36.952,-0.3298,0.1549,0.7906,0.871
36.952,-0.3583,-0.1342,0.2558,0.46
36.952,-0.169,-0.2772,0.2468,0.408
36.952,0.0973,-0.0497,0.0386,0.116
36.952,0.1105,0.2397,-0.1198,0.29
36.952,-0.2362,0.3328,-0.1142,0.424
36.953,-3.7548,0.2679,4.9517,6.22
36.953,3.1504,-0.5093,-1.2727,3.436
36.953,-3.0854,-0.5087,3.9,4.999
36.953,1.5861,-0.8931,-1.8335,2.584
36.954,1.9502,-0.6007,-2.297,3.072
36.954,-0.4249,0.5232,-1.5786,1.717
36.954,0.8398,0.709,-0.8589,1.395
36.954,0.7292,0.3567,-0.5755,0.995
36.954,0.8848,-0.2652,-0.1066,0.93
36.954,-0.0283,-0.1073,0.283,0.304
36.955,-0.3479,0.084,0.5511,0.657
36.955,0.4653,0.103,0.1645,0.504
36.955,-1.5102,0.4685,0.9959,1.869
36.955,1.6292,-0.0508,-0.1175,1.634
36.955,1.7792,0.0302,-0.5591,1.865
36.955,0.0906,0.6177,-0.4155,0.75
36.955,-0.2635,0.7434,-0.3105,0.848
36.956,-0.5153,0.3815,-0.0237,0.642
36.956,-0.4045,0.1682,0.268,0.514
36.956,-0.4976,0.1107,0.3185,0.601
36.956,-0.5038,0.1131,0.1543,0.539
36.956,-9.7822,1.3809,2.2153,10.125
36.956,-1.3983,-1.7193,3.0933,3.805
36.956,10.0726,-0.8233,-3.1901,10.598
36.957,2.4461,0.425,-2.6048,3.598
36.957,-0.9514,-0.2902,-0.072,0.997
36.957,0.0241,-0.4119,0.3905,0.568
36.957,0.7194,-0.2419,0.5136,0.916
36.957,0.1618,-0.1821,0.7249,0.765
36.958,-0.3288,-0.28,0.6543,0.784
36.958,-0.3987,-0.1555,0.3218,0.535
36.958,0.3541,-0.067,0.0475,0.363
36.958,0.4206,0.1313,-0.1646,0.47
36.958,0.0236,0.3699,-0.0661,0.376
36.958,0.0191,0.0203,-0.0536,0.06
36.958,-0.3492,0.0727,0.081,0.366
36.959,-0.3422,0.1011,0.1845,0.402
36.959,-0.4144,0.2037,0.1659,0.491
36.959,-0.3724,0.1986,0.1235,0.44
36.959,-0.338,0.1553,0.086,0.382
36.959,-0.2944,0.1168,0.0151,0.317
36.959,-0.366,0.0618,-0.0319,0.373
36.959,-0.3592,0.0379,-0.0526,0.365
36.96,-0.5106,0.0499,-0.0087,0.513
36.96,-0.5145,-0.0552,0.0735,0.523
36.96,-0.4807,-0.1505,0.1054,0.515
36.96,-0.3183,-0.2575,0.0634,0.414
36.96,-0.1586,-0.2498,-0.0216,0.297
36.96,-0.0541,-0.1369,-0.0729,0.164
36.96,-0.1194,-0.0289,-0.0691,0.141
36.96,-0.0652,-0.0811,-0.0223,0.106
36.96,-0.1113,-0.0091,0.0102,0.112
36.961,0.1178,-0.0853,-0.0335,0.149
36.961,0.3161,-0.0204,-0.0653,0.323
36.961,0.4479,0.1088,-0.0708,0.466
36.961,0.4223,0.1375,0.0145,0.444
36.961,0.3565,0.1111,0.1114,0.39
36.961,0.2912,0.0991,0.1819,0.357
36.961,0.2406,0.0321,0.2115,0.322
36.961,0.2071,0.0511,0.1981,0.291
36.962,0.1024,0.1251,0.1464,0.218
36.962,0.0744,0.1703,0.1115,0.217
36.962,0.0106,0.2346,0.0838,0.249
36.962,-0.0866,0.196,0.097,0.235
36.962,-0.1601,0.0906,0.1173,0.218
36.962,-0.2841,0.0857,0.1042,0.314
36.962,-0.3341,0.0928,0.0697,0.354
36.962,-0.2648,0.1238,0.0257,0.293
36.962,-0.1861,0.0592,-0.011,0.196
36.962,-0.1649,-0.1272,-0.0741,0.221
36.963,-0.1151,-0.1078,0.021,0.159
36.963,0.0086,-0.1984,-0.0229,0.2
36.963,-0.1308,-0.2363,0.0428,0.273
36.963,-0.2442,-0.1905,0.1129,0.33
36.963,-0.5082,-0.214,0.1755,0.579
36.963,0.017,-0.2973,0.0802,0.308
36.963,0.1044,-0.2538,-0.0342,0.277
36.963,0.1105,-0.3108,-0.0174,0.33
36.963,-0.0053,-0.4394,-0.0032,0.439
36.963,-0.0063,-0.226,0.1449,0.269
36.964,0.0285,0.0038,0.1401,0.143
36.964,0.0922,0.066,0.1021,0.153
36.964,0.326,-0.0703,0.0092,0.334
36.964,-0.1167,-0.0511,-0.0604,0.141
36.964,-1.254,-0.3833,-0.0788,1.314
36.964,-0.0572,-0.562,0.3061,0.643
36.964,0.471,0.409,0.0129,0.624
36.964,-0.104,0.6332,-0.022,0.642
36.964,-0.1336,0.6636,0.1389,0.691
36.965,0.3942,0.1561,-0.0469,0.427
36.965,0.5299,-0.1021,-0.0702,0.544
36.965,0.0564,0.0414,0.1024,0.124
36.965,0.0977,0.187,0.1435,0.255
36.965,0.1248,0.1413,0.1273,0.228
36.965,0.2122,0.0478,0.0659,0.227
36.965,0.324,-0.0528,-0.0242,0.329
36.965,0.5824,-0.0553,-0.1382,0.601
36.965,0.6166,-0.0532,-0.2214,0.657
36.966,0.4816,-0.0511,-0.1804,0.517
36.966,0.1771,-0.0084,-0.056,0.186
36.966,-0.132,-0.0015,0.0968,0.164
36.966,-0.3265,-0.0281,0.173,0.371
36.966,-0.5189,-0.026,0.2252,0.566
36.966,-0.5205,-0.0309,0.1746,0.55
36.966,-0.5154,0.0335,0.0785,0.522
36.966,-0.5014,0.1002,-0.02,0.512
36.966,-0.4879,0.1048,-0.0828,0.506
36.967,-0.6329,0.0305,-0.0837,0.639
36.967,-0.6862,-0.0817,-0.0148,0.691
36.967,-2.4517,1.1353,1.8745,3.288
36.967,0.1692,-0.7777,-0.4669,0.923
36.967,-0.1501,-0.5733,-0.7231,0.935
36.967,-0.4141,-0.4576,-0.4375,0.757
36.967,-0.5918,-0.2632,-0.1668,0.669
36.967,-0.6191,-0.1001,-0.0224,0.628
36.967,-0.5014,-0.2047,0.0531,0.544
36.968,-0.4083,-0.259,0.0236,0.484
36.968,-0.3277,-0.2606,-0.0032,0.419
36.968,-0.1395,-0.2,-0.0705,0.254
36.968,0.056,-0.0655,-0.1281,0.154
36.968,0.2733,0.0378,-0.1401,0.309
36.968,0.4286,0.0979,-0.1424,0.462
36.968,0.4048,0.1746,-0.0969,0.451
36.968,0.3601,0.1961,-0.0395,0.412
36.968,0.3303,0.2153,0.0011,0.394
36.968,0.3802,0.2248,0.0346,0.443
36.969,0.45,0.2127,0.0228,0.498
36.969,0.5275,0.1934,0.0351,0.563
36.969,0.5244,0.1716,0.0331,0.553
36.969,0.5075,0.1236,0.0362,0.524
36.969,0.5222,0.0732,0.0371,0.529
36.969,0.4514,0.0562,0.0428,0.457
36.969,0.3668,0.0536,0.0461,0.374
36.969,0.2971,0.0438,0.0783,0.31
36.969,0.1679,0.0029,0.0818,0.187
36.969,0.1083,-0.0594,0.0591,0.137
36.97,-0.0206,-0.0763,0.0341,0.086
36.97,-0.152,-0.062,0.0092,0.164
36.97,-0.2957,0.0048,-0.0014,0.296
36.97,-0.4326,0.0191,-0.0191,0.433
36.97,-0.4721,0.0381,0.0062,0.474
36.97,-0.5098,0.0405,-0.0139,0.512
36.97,-0.438,0.0142,-0.0268,0.439
36.97,-0.1897,-0.0263,-0.0542,0.199
36.97,0.0081,-0.0573,-0.0935,0.11
36.97,0.0935,-0.0619,-0.066,0.13
36.971,0.1432,-0.1191,-0.0268,0.188
36.971,0.1882,-0.1835,-0.0094,0.263
36.971,0.1737,-0.1856,0.0076,0.254
36.971,0.0828,-0.0324,0.0171,0.091
36.971,-0.0008,0.1062,0.0215,0.108
36.971,-0.082,0.106,0.0207,0.136
36.971,-0.1322,0.027,0.0316,0.139
36.971,-0.252,0.0366,0.0376,0.257
36.972,-0.207,0.0389,0.0579,0.218
36.972,-0.1528,-0.0686,0.0545,0.176
36.972,-0.0846,-0.1688,0.0609,0.198
36.972,0.0648,-0.2019,0.0748,0.225
36.972,0.2096,-0.2111,0.0459,0.301
36.972,0.2972,-0.1654,0.0627,0.346
36.972,0.3541,-0.1174,0.0557,0.377
36.972,0.3012,-0.1125,0.0513,0.326
36.972,0.1411,-0.1243,0.0708,0.201
36.972,-0.0118,-0.0788,0.0663,0.104
