time,ax,ay,az,aT
0.0040,-0.2789,0.0655,-1.9254,1.947
0.0040,-0.2772,0.1423,-1.6985,1.727
0.0040,-0.2832,0.1805,-1.3472,1.388
0.0050,-0.3038,0.2149,-0.8974,0.971
0.0050,-0.3105,0.2513,-0.3988,0.564
0.0090,-0.3156,0.3098,0.0512,0.445
0.0160,-0.3146,0.3317,0.4340,0.630
0.0190,-0.3070,0.3593,0.6975,0.843
0.0250,-0.2966,0.3748,0.8709,0.993
0.0320,-0.2813,0.3492,0.8947,1.001
0.0340,-0.2996,0.3209,0.8407,0.948
0.0380,-0.2792,0.2254,0.6469,0.740
0.0430,-0.2743,0.1568,0.3800,0.494
0.0480,-0.2574,0.0704,0.1067,0.287
0.0530,-0.2457,0.0197,-0.0945,0.264
0.0570,-0.2260,-0.0304,-0.2621,0.347
0.0640,-0.2139,-0.0699,-0.3438,0.411
0.0670,-0.2206,-0.0865,-0.3472,0.420
0.0720,-0.2175,-0.0873,-0.2866,0.370
0.0770,-0.2218,-0.0770,-0.1909,0.303
0.0820,-0.2318,-0.0701,-0.0505,0.247
0.0870,-0.2193,-0.0383,0.0774,0.236
0.0910,-0.2306,-0.0322,0.2048,0.310
0.0970,-0.2063,-0.0282,0.2913,0.358
0.1010,-0.1995,-0.0122,0.3467,0.400
0.1060,-0.1867,-0.0227,0.3662,0.412
0.1120,-0.1799,-0.0312,0.4073,0.446
0.1160,-0.1502,-0.0402,0.3912,0.421
0.1210,-0.1452,-0.0400,0.3441,0.376
0.1250,-0.1121,-0.0592,0.2782,0.306
0.1310,-0.1007,-0.0906,0.2125,0.252
0.1350,-0.0844,-0.1077,0.1684,0.217
0.1400,-0.1059,-0.0961,0.1650,0.218
0.1450,-0.0814,-0.0748,0.1615,0.196
0.1500,-0.0682,-0.0606,0.1675,0.191
0.1550,-0.0592,-0.0439,0.1688,0.184
0.1590,-0.0858,-0.0248,0.2512,0.267
0.1640,-0.1007,0.0086,0.2930,0.310
0.1690,-0.1186,0.0491,0.3586,0.381
0.1740,-0.1351,0.0677,0.3788,0.408
0.1790,-0.1477,0.1006,0.3751,0.415
0.1840,-0.1759,0.0973,0.3404,0.395
0.1880,-0.1624,0.0702,0.2986,0.347
0.1930,-0.1618,0.0361,0.2281,0.282
0.1990,-0.1475,0.0236,0.1193,0.191
0.2040,-0.1596,-0.0101,0.0655,0.173
0.2080,-0.1498,-0.0410,-0.0074,0.155
0.2140,-0.1390,-0.0978,-0.0374,0.174
0.2180,-0.1173,-0.1423,-0.0459,0.190
0.2230,-0.1086,-0.1940,-0.0018,0.222
0.2280,-0.0940,-0.2222,0.0258,0.243
0.2340,-0.0934,-0.2174,0.0750,0.248
0.2370,-0.0976,-0.1847,0.1437,0.254
0.2420,-0.1094,-0.1387,0.1673,0.243
0.2470,-0.1195,-0.0721,0.1887,0.235
0.2510,-0.1304,-0.0278,0.1842,0.227
0.2560,-0.1207,0.0159,0.1823,0.219
0.2620,-0.1357,0.0475,0.1326,0.196
0.2660,-0.1368,0.0885,0.0878,0.185
0.2710,-0.1550,0.1253,-0.0026,0.199
0.2760,-0.1398,0.1461,-0.0646,0.212
0.2800,-0.1472,0.1478,-0.1331,0.247
0.2850,-0.1348,0.1223,-0.1661,0.246
0.2900,-0.1690,0.1055,-0.1447,0.246
0.2990,-0.1567,0.0924,-0.1003,0.208
0.3000,-0.1458,0.0470,-0.0305,0.156
0.3050,-0.1367,-0.0092,0.0266,0.140
0.3090,-0.1371,-0.0671,0.1235,0.196
0.3150,-0.1641,-0.0867,0.2599,0.319
0.3190,-0.1776,-0.0591,0.3408,0.389
0.3240,-0.1945,-0.0370,0.3572,0.408
0.3300,-0.2055,-0.0300,0.3239,0.385
0.3340,-0.2578,-0.0119,0.2840,0.384
0.3390,-0.2679,0.0006,0.2210,0.347
0.3440,-0.2620,-0.0158,0.1682,0.312
0.3490,-0.2518,0.0033,0.0708,0.262
0.3550,-0.2370,-0.0180,0.0145,0.238
0.3590,-0.2123,-0.0410,-0.0960,0.237
0.3650,-0.1894,-0.0586,-0.1560,0.252
0.3680,-0.1870,-0.0684,-0.1849,0.272
0.3730,-0.1908,-0.0869,-0.2138,0.299
0.3780,-0.1889,-0.0883,-0.2308,0.311
0.3830,-0.1766,-0.1035,-0.1908,0.280
0.3870,-0.1799,-0.1327,-0.1725,0.282
0.3920,-0.1772,-0.1240,-0.0996,0.238
0.3970,-0.1689,-0.0995,-0.0247,0.198
0.4020,-0.1650,-0.0617,0.0807,0.194
0.4070,-0.1665,0.0199,0.1644,0.235
0.4170,-0.1599,0.0881,0.1717,0.251
0.4170,-0.1364,0.1123,0.1342,0.222
0.4210,-0.1033,0.1480,0.0543,0.189
0.4260,-0.0956,0.1575,-0.0440,0.189
0.4310,-0.0838,0.1129,-0.1774,0.226
0.4350,-0.0765,0.0789,-0.2529,0.276
0.4400,-0.1016,0.0297,-0.3307,0.347
0.4470,-0.0894,-0.0085,-0.3418,0.353
0.4500,-0.1017,-0.0501,-0.3152,0.335
0.4550,-0.1171,-0.0789,-0.2725,0.307
0.4590,-0.1261,-0.1141,-0.1899,0.255
0.4650,-0.1459,-0.1230,-0.0677,0.203
0.4700,-0.1650,-0.1301,0.0040,0.210
0.4760,-0.1556,-0.1569,0.0778,0.234
0.4800,-0.1684,-0.1585,0.1229,0.262
0.4840,-0.1701,-0.1471,0.1302,0.260
0.4890,-0.1464,-0.1538,0.0976,0.234
0.4940,-0.1330,-0.1187,0.0444,0.184
0.4990,-0.1369,-0.1253,0.0062,0.186
0.5040,-0.1268,-0.0778,-0.0005,0.149
0.5090,-0.1336,-0.0431,-0.0165,0.141
0.5210,-0.1335,-0.0015,-0.0467,0.141
0.5220,-0.0933,0.0067,-0.0743,0.119
0.5270,-0.0532,-0.0416,-0.0876,0.111
0.5370,-0.0486,-0.1056,-0.1223,0.169
0.5370,-0.0456,-0.1424,-0.1309,0.199
0.5370,-0.0443,-0.1783,-0.0969,0.208
0.5420,-0.0375,-0.1968,-0.0468,0.206
0.5470,-0.0159,-0.2029,-0.0068,0.204
0.5520,-0.0202,-0.1874,0.0447,0.194
0.5570,-0.0410,-0.1885,0.0934,0.214
0.5630,-0.0402,-0.1446,0.1156,0.189
0.5660,-0.0446,-0.1152,0.1233,0.175
0.5720,-0.0115,-0.0789,0.0930,0.123
0.5770,-0.0099,-0.0736,0.0391,0.084
0.5810,0.0482,-0.0607,-0.0477,0.091
0.5860,0.0819,-0.1116,-0.1269,0.188
0.5910,0.1038,-0.1447,-0.2056,0.272
0.6020,0.1141,-0.1795,-0.2318,0.315
0.6020,0.1535,-0.2158,-0.2626,0.373
0.6100,0.1673,-0.2421,-0.2648,0.396
0.6110,0.2058,-0.2988,-0.2408,0.436
0.6160,0.2163,-0.3103,-0.2241,0.440
0.6210,0.2533,-0.3410,-0.2216,0.479
0.6250,0.2904,-0.3846,-0.2060,0.524
0.6300,0.3570,-0.4701,-0.1899,0.620
0.6350,0.4005,-0.5188,-0.2065,0.687
0.6390,0.4183,-0.5837,-0.2224,0.752
0.6440,0.4247,-0.6006,-0.2780,0.786
0.6490,0.4577,-0.6246,-0.3278,0.841
0.6540,0.4789,-0.6320,-0.3550,0.869
0.6590,0.5024,-0.6250,-0.4218,0.906
0.6670,0.5258,-0.6059,-0.4804,0.935
0.6690,0.5109,-0.6128,-0.5549,0.972
0.6730,0.5323,-0.6549,-0.5831,1.026
0.6780,0.5305,-0.6626,-0.5629,1.018
0.6840,0.4580,-0.6263,-0.5611,0.958
0.6880,0.3959,-0.5648,-0.5731,0.897
0.6930,0.3747,-0.5087,-0.5800,0.858
0.7020,0.3059,-0.4554,-0.5222,0.757
0.7030,0.2254,-0.3591,-0.4214,0.598
0.7090,0.1694,-0.2726,-0.3181,0.452
0.7160,0.1258,-0.1648,-0.1981,0.287
0.7170,0.0845,-0.1000,-0.1070,0.169
0.7220,0.0447,-0.0586,-0.0066,0.074
0.7260,0.0035,0.0069,0.1175,0.118
0.7310,-0.0516,0.1234,0.2625,0.295
0.7360,-0.0611,0.2553,0.3757,0.458
0.7410,-0.0828,0.3458,0.3899,0.528
0.7460,-0.1260,0.3954,0.4031,0.579
0.7510,-0.1925,0.4761,0.3816,0.640
0.7550,-0.2509,0.5452,0.3015,0.672
0.7600,-0.3326,0.5290,0.1292,0.638
0.7650,-0.4112,0.4759,-0.0710,0.633
0.7700,-0.4643,0.4054,-0.2034,0.649
0.7750,-0.4975,0.3439,-0.2275,0.646
0.7810,-0.5591,0.3079,-0.1815,0.664
0.7850,-0.6026,0.2731,-0.0557,0.664
0.7900,-0.6948,0.2771,0.1550,0.764
0.7950,-0.6932,0.2644,0.3477,0.819
0.8000,-0.7279,0.2653,0.6184,0.991
0.8040,-0.6978,0.2693,0.8552,1.136
0.8090,-0.7833,0.2828,1.0558,1.345
0.8220,-1.2575,0.3191,0.8098,1.529
0.8230,-1.3104,0.4285,0.3661,1.426
0.8290,-0.4110,0.5660,0.6690,0.968
0.8300,-0.6439,0.7503,0.8236,1.287
0.8410,-1.0360,0.7032,0.8473,1.512
0.8420,-1.0304,0.6182,0.7141,1.398
0.8440,-0.8262,0.6147,0.6177,1.201
0.8500,-0.7075,0.6477,0.4647,1.066
0.8520,-0.6930,0.6385,0.3172,0.994
0.8570,-0.7270,0.5756,0.1704,0.943
0.8630,-0.7225,0.5140,-0.0068,0.887
0.8680,-0.5898,0.4253,0.0007,0.727
0.8720,-0.5114,0.3213,0.4292,0.741
0.8780,-0.5874,0.2182,0.6236,0.884
0.8830,-0.5427,0.0987,0.7231,0.909
0.8880,-0.4778,-0.0278,0.7659,0.903
0.8930,-0.4261,-0.1158,0.7402,0.862
0.9020,-0.3852,-0.1959,0.6627,0.791
0.9020,-0.3983,-0.2368,0.6025,0.760
0.9070,-0.4507,-0.2189,0.5595,0.751
0.9110,-0.4445,-0.1682,0.5025,0.692
0.9280,-0.3414,-0.0987,0.3595,0.506
0.9280,-0.2488,-0.0242,0.1927,0.316
0.9290,-0.2110,-0.0158,0.0402,0.215
0.9330,-0.1769,0.0009,-0.1581,0.237
0.9400,-0.1310,-0.0358,-0.3040,0.333
0.9410,-0.0845,-0.1233,-0.3094,0.344
0.9450,-0.0298,-0.2160,-0.2197,0.310
0.9520,-0.0487,-0.2713,-0.0518,0.280
0.9560,-0.0871,-0.2899,0.1038,0.320
0.9620,-0.0767,-0.2603,0.2470,0.367
0.9660,-0.1067,-0.1973,0.3352,0.403
0.9700,-0.1677,-0.1156,0.3469,0.402
0.9780,-0.1353,-0.0702,0.2345,0.280
0.9800,-0.0878,-0.0751,0.0889,0.146
0.9860,-0.0919,-0.0869,0.0605,0.140
0.9890,-0.1096,-0.0601,0.1252,0.177
0.9940,-0.1346,-0.0305,0.1490,0.203
1.0010,-0.1199,0.0258,0.2395,0.269
1.0050,-0.0947,0.0918,0.3392,0.364
1.0090,-0.0997,0.1673,0.4101,0.454
1.0420,-0.1373,0.2304,0.4858,0.555
1.0470,-0.1645,0.3310,0.5209,0.639
1.0470,-0.1625,0.4070,0.5106,0.673
1.0480,-0.1176,0.4632,0.4599,0.663
1.0480,-0.1469,0.4902,0.3759,0.635
1.0490,-0.1256,0.4666,0.2465,0.542
1.0490,-0.0842,0.4741,0.1197,0.496
1.0730,-0.0030,0.4649,-0.0046,0.465
1.0750,0.0461,0.4490,-0.1195,0.467
1.0750,0.0924,0.4457,-0.1484,0.479
1.0750,0.0146,0.5552,-0.3854,0.676
1.0750,0.2250,0.4978,-0.2088,0.585
1.0760,0.2088,0.4791,-0.0612,0.526
1.0780,0.5131,0.2305,0.1462,0.581
1.0830,-0.1408,0.3279,0.3536,0.502
1.0850,-0.0594,0.2533,0.8580,0.897
1.0900,0.0521,0.1633,0.7418,0.761
1.0950,0.1397,0.0201,0.8325,0.844
1.1040,0.1125,-0.0831,0.9148,0.925
1.1040,0.0288,-0.1538,0.8169,0.832
1.1090,0.0417,-0.2515,0.6703,0.717
1.1140,0.0343,-0.3251,0.4366,0.545
1.1190,-0.1572,-0.2448,-0.1403,0.323
1.1240,-0.1692,-0.2028,-0.6135,0.668
1.1290,-0.1027,-0.1478,-0.9621,0.979
1.1340,-0.1163,-0.1217,-1.1366,1.149
1.1390,-0.2045,-0.0949,-1.0945,1.117
1.1440,-0.2632,-0.0866,-0.8888,0.931
1.1500,-0.2842,-0.0897,-0.6367,0.703
1.1530,-0.2642,-0.1044,-0.3503,0.451
1.1570,-0.2936,-0.1527,0.0878,0.342
1.1630,-0.3391,-0.1851,0.5295,0.655
1.1670,-0.3097,-0.1307,0.7789,0.848
1.1720,-0.2407,-0.0762,0.8796,0.915
1.1770,-0.1924,-0.0359,0.9250,0.945
1.1820,-0.1646,-0.0268,0.9081,0.923
1.1870,-0.1784,-0.0036,0.8720,0.890
1.1910,-0.1232,-0.0310,0.8026,0.813
1.1990,-0.1150,-0.0471,0.7479,0.758
1.2010,-0.0928,-0.0208,0.6865,0.693
1.2060,-0.1172,0.0285,0.5707,0.583
1.2110,-0.1186,0.1031,0.3838,0.415
1.2160,-0.2365,0.3347,-0.0701,0.416
1.2210,-0.1502,0.4730,-0.4708,0.684
1.2250,0.1046,0.4497,-0.0828,0.469
1.2310,-0.1034,0.4700,-0.0873,0.489
1.2360,-0.2857,0.5101,-0.3503,0.682
1.2400,-0.2429,0.4533,-0.4986,0.716
1.2450,-0.2350,0.4002,-0.6067,0.764
1.2500,-0.2995,0.3391,-0.7106,0.842
1.2550,-0.4043,0.2653,-0.7769,0.915
1.2600,-0.4531,0.1954,-0.7506,0.898
1.2670,-0.4101,0.1724,-0.8469,0.957
1.2700,-0.4021,0.1723,-1.0561,1.143
1.2740,-0.4188,0.1812,-1.2396,1.321
1.2800,-0.4024,0.1968,-1.2995,1.375
1.2860,-0.3503,0.1976,-1.2526,1.316
1.2890,-0.2654,0.1854,-1.0820,1.129
1.2940,-0.1960,0.1433,-0.7876,0.824
1.3080,-0.1728,0.0753,-0.4218,0.462
1.3090,-0.2391,0.0285,-0.1348,0.276
1.3090,-0.2945,0.0167,-0.0101,0.295
1.3270,-0.3067,0.0588,-0.0210,0.313
1.3280,-0.2984,0.1166,-0.2513,0.407
1.3280,-0.3196,0.1618,-0.6267,0.722
1.3290,-0.2807,0.1306,-0.8964,0.948
1.3360,-0.2785,0.0882,-1.1015,1.140
1.3390,-0.2533,0.0230,-1.0103,1.042
1.3470,-0.1660,-0.0511,-0.7664,0.786
1.3470,-0.0671,-0.1084,-0.4821,0.499
1.3520,0.0290,-0.1924,-0.2599,0.325
1.3580,0.0404,-0.3583,-0.1929,0.409
1.3620,0.0367,-0.5273,-0.1231,0.543
1.3670,-0.0064,-0.7044,0.0905,0.710
1.3710,-0.0708,-0.8635,0.3211,0.924
1.3760,-0.0879,-0.9883,0.4660,1.096
1.3820,-0.0582,-0.9714,0.5062,1.097
1.3860,-0.0482,-0.8488,0.4490,0.961
1.3900,0.0265,-0.6988,0.3802,0.796
1.3950,0.0736,-0.5256,0.3140,0.617
1.4010,0.1197,-0.3237,0.4175,0.542
1.4060,0.1980,-0.1238,0.6925,0.731
1.4090,0.1741,0.0430,0.9046,0.922
1.4230,0.0872,0.0692,0.8940,0.901
1.4240,0.0911,-0.0211,0.7420,0.748
1.4240,0.1247,-0.0334,0.4679,0.485
1.4300,-0.0603,0.0806,0.2077,0.231
1.4410,-0.1018,0.1616,0.0757,0.205
1.4420,-0.0589,0.2580,-0.0077,0.265
1.4440,-0.0151,0.3246,0.0436,0.328
1.4520,-0.0291,0.4231,0.1723,0.458
1.4540,-0.0527,0.5678,0.2685,0.630
1.4590,-0.0286,0.6913,0.3061,0.757
1.4640,-0.0166,0.7551,0.3427,0.829
1.4680,-0.0802,0.7612,0.4287,0.877
1.4740,-0.1211,0.7370,0.5337,0.918
1.4770,-0.1733,0.7226,0.5526,0.926
1.4850,-0.1988,0.6356,0.4598,0.809
1.4880,-0.1803,0.4707,0.2125,0.547
1.4970,-0.2146,0.3564,0.0791,0.423
1.4970,-0.0769,0.2880,0.0903,0.311
1.5030,-0.0383,0.2362,0.0766,0.251
1.5070,0.0103,0.2725,-0.0674,0.281
1.5110,0.1443,0.3033,-0.1336,0.361
1.5160,0.1724,0.2471,-0.0168,0.302
1.5220,0.1998,0.1393,0.2184,0.327
1.5260,0.2880,0.1608,0.4549,0.562
1.5310,0.3781,0.2109,0.4823,0.648
1.5370,0.4125,0.1415,0.1717,0.469
1.5400,0.3729,-0.1301,-0.3667,0.539
1.5450,0.3208,-0.4492,-0.8702,1.030
1.5500,0.2411,-0.6464,-1.2556,1.433
1.5550,0.1471,-0.7730,-1.3777,1.587
1.5600,0.0436,-0.8185,-1.2635,1.506
1.5660,-0.0751,-0.7084,-0.9901,1.220
1.5690,-0.1720,-0.5241,-0.6511,0.853
1.5740,-0.2167,-0.3018,-0.3708,0.525
1.5790,-0.2582,-0.0850,-0.1588,0.315
1.5840,-0.2730,0.1309,-0.0029,0.303
1.5890,-0.2882,0.3217,0.1136,0.447
1.5930,-0.2873,0.4538,0.1598,0.560
1.6000,-0.3063,0.5418,0.1834,0.649
1.6040,-0.3448,0.5475,0.1391,0.662
1.6080,-0.3615,0.5140,0.1180,0.639
1.6140,-0.3913,0.4743,0.1346,0.629
1.6180,-0.3908,0.4715,0.1436,0.629
1.6230,-0.3836,0.4765,0.1284,0.625
1.6270,-0.3670,0.5247,0.0820,0.645
1.6330,-0.3456,0.6180,0.0884,0.714
1.6370,-0.2549,0.7658,0.0615,0.809
1.6420,-0.1690,0.8956,0.0207,0.912
1.6470,-0.0473,1.0142,0.0475,1.016
1.6520,0.0791,1.1303,0.1086,1.138
1.6570,0.1670,1.2506,0.2327,1.283
1.6610,0.2110,1.3431,0.3580,1.406
1.6660,0.2683,1.3906,0.5252,1.510
1.6710,0.2548,1.4116,0.7033,1.598
1.6760,0.2415,1.3651,0.8853,1.645
1.6810,0.2633,1.2819,1.1500,1.742
1.6860,0.1656,1.1451,1.5284,1.917
1.6910,0.4409,0.8806,1.9580,2.192
1.6950,0.2789,0.6384,2.2859,2.390
1.7010,0.3138,0.3592,2.6077,2.651
1.7050,0.3261,0.1195,2.8947,2.915
1.7100,0.3702,-0.0945,2.8961,2.921
1.7190,0.4018,-0.2697,2.5716,2.617
1.7200,0.3777,-0.3591,2.0771,2.141
1.7250,0.2650,-0.3609,1.4219,1.491
1.7300,0.1490,-0.2968,0.5462,0.639
1.7340,-0.0304,-0.1163,-0.4194,0.436
1.7390,-1.0646,0.8084,-4.1735,4.382
1.7440,-0.1479,0.9341,-6.1027,6.176
1.7490,-1.0791,1.3386,-5.7099,5.963
1.7540,-1.6880,1.7830,-6.2920,6.754
1.7580,-0.3021,1.5144,-5.2001,5.425
1.7640,-0.8870,1.5135,-4.2299,4.579
1.7680,-1.4066,1.4159,-3.1000,3.687
1.7730,-1.4399,1.2514,-1.9573,2.733
1.7780,-1.2352,1.0963,-0.9871,1.924
1.7830,-1.1346,0.9379,-0.3338,1.509
1.7870,-1.1457,0.8123,0.1662,1.414
1.7920,-1.2401,0.7032,0.3748,1.474
1.8020,-1.2269,0.6487,0.3473,1.431
1.8020,-1.1532,0.6027,0.1844,1.314
1.8070,-1.1033,0.5705,-0.1662,1.253
1.8120,-1.0848,0.5669,-0.6210,1.372
1.8170,-1.0430,0.6075,-1.2040,1.705
1.8210,-0.9787,0.6822,-1.7460,2.115
1.8260,-0.8924,0.8210,-2.2954,2.596
1.8320,-0.7940,0.9727,-2.7807,3.051
1.8380,-0.6120,1.0379,-3.0924,3.319
1.8410,-0.3270,0.9245,-3.1734,3.321
1.8460,-0.0481,0.6822,-3.0569,3.133
1.8530,0.1411,0.3983,-2.8358,2.867
1.8550,0.3130,0.0877,-2.5022,2.523
1.8600,0.4359,-0.1932,-2.1131,2.166
1.8660,0.4522,-0.4490,-1.6727,1.790
1.8730,0.4925,-0.6836,-1.2644,1.519
1.8750,0.5645,-0.8817,-0.9286,1.399
1.8800,0.5893,-0.9981,-0.7300,1.370
1.8850,0.6183,-1.0690,-0.6638,1.402
1.8900,0.6327,-1.0775,-0.6032,1.387
1.8940,0.6452,-1.0137,-0.5867,1.337
1.9010,0.6384,-0.9055,-0.7171,1.320
1.9040,0.5899,-0.8143,-0.9084,1.355
1.9090,0.5084,-0.7512,-1.0505,1.388
1.9140,0.4158,-0.7035,-1.0387,1.322
1.9250,0.3416,-0.7206,-0.8779,1.186
1.9250,0.2449,-0.7667,-0.6233,1.018
1.9280,0.1543,-0.8326,-0.3823,0.929
1.9340,0.0519,-0.8708,-0.2481,0.907
1.9380,-0.0160,-0.8960,-0.1993,0.918
1.9440,-0.1883,-0.9534,-0.2715,1.009
1.9500,-0.4153,-0.9791,-0.4765,1.165
1.9520,-0.5146,-1.0303,-0.6778,1.336
1.9580,-0.4088,-1.0516,-0.8061,1.387
1.9620,-0.0528,-1.0067,-0.7776,1.273
1.9670,0.0222,-0.9240,-0.5948,1.099
1.9720,-0.0656,-0.9064,-0.3586,0.977
1.9770,-0.0743,-0.9932,0.0481,0.997
1.9820,-0.0214,-1.1733,0.4626,1.261
1.9860,0.0547,-1.3497,0.8370,1.589
1.9910,0.1043,-1.4562,1.0755,1.813
1.9960,0.0784,-1.5074,1.1037,1.870
2.0010,-0.0346,-1.5588,0.8766,1.789
2.0070,-0.2664,-1.6125,0.3590,1.673
2.0100,-0.5211,-1.7066,-0.2881,1.807
2.0210,-0.5201,-1.8638,-0.8131,2.099
2.0210,-0.3063,-1.9112,-1.0523,2.203
2.0260,-0.3679,-1.6852,-1.1302,2.062
2.0300,-0.5887,-1.2474,-1.0472,1.732
2.0360,-0.8431,-0.8105,-0.8068,1.421
2.0400,-0.9065,-0.5715,-0.3522,1.128
2.0450,-0.7447,-0.5407,0.2678,0.958
2.0490,-0.4365,-1.0703,0.7852,1.397
2.0550,-0.9251,-1.8273,1.5571,2.573
2.0590,-1.3924,-3.1144,2.5654,4.268
2.0670,-1.8631,-3.1005,2.5723,4.439
2.1440,-1.6948,-2.4710,2.6087,3.973
2.1450,-0.7615,-2.2902,3.0250,3.870
2.1450,-0.4328,-2.0255,2.8094,3.490
2.1450,-0.4785,-1.6547,2.0396,2.670
2.1450,-0.4194,-1.1956,1.2633,1.789
2.1460,-0.1725,-0.6479,0.5120,0.844
2.1460,-0.0559,-0.0786,-0.1802,0.204
2.1460,-0.1483,0.2825,-0.6090,0.687
2.1460,-0.3096,0.4828,-0.7360,0.933
2.1460,-0.3485,0.5569,-0.5920,0.884
2.1460,-0.3130,0.5607,-0.1958,0.671
2.1460,-0.3930,0.5281,0.3739,0.757
2.1460,-0.4965,0.4955,0.9202,1.157
2.1470,-0.4435,0.4540,1.3682,1.508
2.1470,-0.3899,0.4598,1.6337,1.741
2.1470,-0.2884,0.4493,1.6024,1.689
2.1470,-0.6985,0.4248,1.3727,1.598
2.1530,-0.4555,0.3872,1.2290,1.367
2.1560,-0.1902,0.6660,1.2378,1.418
2.1600,-0.1376,1.0834,1.2314,1.646
2.1690,0.0481,1.3234,0.8355,1.566
2.1700,0.2557,2.0036,0.2963,2.041
2.1750,0.3947,2.9456,-0.0987,2.974
2.1800,0.3818,3.1444,-0.0537,3.168
2.1870,0.5633,2.9566,0.3996,3.036
2.1900,1.3459,2.5783,0.8157,3.021
2.1950,0.3956,1.7224,0.9208,1.993
2.2000,-0.2790,0.4933,1.0574,1.200
2.2040,-0.4501,-0.5134,1.2200,1.398
2.2090,-0.5955,-0.5753,1.3921,1.620
2.2150,-0.4162,-0.3233,1.7623,1.839
2.2330,-0.1854,0.0150,1.9500,1.959
2.2330,-0.9119,0.1561,1.6598,1.900
2.2330,-3.0026,-1.0414,1.1757,3.389
2.2370,-0.9100,0.0364,1.8244,2.039
2.2390,-0.1260,0.2682,2.7280,2.744
2.2430,-0.1081,0.8974,3.0610,3.192
2.2500,-0.2949,1.6948,2.5473,3.074
2.2550,-0.2573,2.0059,2.0375,2.871
2.2580,0.1637,1.6676,1.7776,2.443
2.2630,0.4936,0.4503,1.5279,1.668
2.2670,0.8231,-1.0161,1.3206,1.858
2.2720,1.1238,-0.9070,1.0807,1.804
2.2770,0.7575,-0.4863,0.8518,1.239
2.2820,0.3410,-0.0718,0.8188,0.890
2.2870,0.2178,0.1453,0.6566,0.707
2.2920,-0.0536,0.3970,0.7066,0.812
2.2960,-0.4356,0.6556,0.9724,1.251
2.3010,-0.8683,0.9172,1.4474,1.921
2.3060,-1.2075,1.0807,1.8199,2.437
2.3120,-1.3559,1.2755,2.0962,2.803
2.3170,-1.3357,1.3797,2.1166,2.858
2.3210,-1.1150,1.2568,2.1010,2.690
2.3260,-0.7935,0.8495,2.1931,2.482
2.3310,-0.5351,0.3839,2.3349,2.426
2.3360,-0.2843,0.1208,2.3186,2.339
2.3400,0.0120,0.0183,2.2342,2.234
2.3450,0.2346,0.0322,2.1817,2.195
2.3500,0.4370,-0.1494,2.1568,2.206
2.3550,0.6162,-0.7853,1.9772,2.215
2.3600,0.5031,-1.4439,1.6609,2.257
2.3650,0.2361,-1.7109,1.0966,2.046
2.3700,0.1560,-1.6552,0.4519,1.723
2.3740,0.4248,-1.4026,0.0399,1.466
2.3790,0.9563,-1.1701,-0.1317,1.517
2.3830,1.5879,-1.1360,-0.1321,1.957
2.3880,1.7639,-1.2080,-0.1294,2.142
2.3930,1.5656,-1.0895,-0.1585,1.914
2.3990,1.5930,-0.8634,-0.0635,1.813
2.4030,1.7181,-0.5304,0.2313,1.813
2.4080,1.7469,-0.4325,0.6136,1.901
2.4130,1.4996,-0.5102,0.9573,1.851
2.4180,0.8934,-0.6637,1.2455,1.670
2.4230,0.2568,-0.7975,1.5888,1.796
2.4270,-0.1547,-0.7366,1.7914,1.943
2.4320,-0.2931,-0.5118,1.7652,1.861
2.4370,-0.1630,-0.5111,1.4967,1.590
2.4420,0.0666,-0.8461,0.9936,1.307
2.4470,0.3481,-1.1044,0.3448,1.208
2.4510,0.7505,-1.1410,-0.1121,1.370
2.4560,1.1652,-0.9605,-0.3038,1.540
2.4610,1.4607,-0.7563,-0.2801,1.669
2.4660,1.5391,-0.7690,-0.0869,1.723
2.4710,1.4886,-0.8176,0.0157,1.698
2.4760,1.3276,-0.8744,-0.0786,1.592
2.4800,1.2139,-0.7944,-0.2443,1.471
2.4850,1.2383,-0.5235,-0.3890,1.400
2.4900,1.2798,-0.2600,-0.5126,1.403
2.4950,1.2912,-0.1329,-0.5789,1.421
2.5000,1.2897,-0.0299,-0.5471,1.401
2.5050,1.2627,0.0568,-0.5028,1.360
2.5100,1.2054,0.0835,-0.4689,1.296
2.5150,1.4823,-0.1050,-0.2031,1.500
2.5190,1.7029,-0.2028,0.4544,1.774
2.5240,1.4683,-0.0935,0.4365,1.535
2.5290,1.4221,0.0590,0.4159,1.483
2.5340,1.4677,0.1763,0.2878,1.506
2.5390,1.4388,0.1420,0.0781,1.448
2.5440,1.1424,-0.0695,-0.0805,1.147
2.5480,0.7445,-0.2816,-0.2608,0.838
2.5530,0.3994,-0.4247,-0.5528,0.803
2.5590,0.3265,-0.5560,-0.8885,1.098
2.5640,0.4480,-0.6245,-1.1997,1.425
2.5680,0.6511,-0.6703,-1.3482,1.640
2.5730,0.5057,-0.5733,-1.2284,1.447
2.5770,-0.4224,-0.3316,-0.5461,0.766
2.5830,-1.0613,-0.0393,-0.1904,1.079
2.5910,-1.6071,0.1872,-0.0345,1.618
2.5920,-2.0466,0.4545,0.1370,2.101
2.5970,-2.2590,0.7857,0.3066,2.411
2.6030,-2.3645,0.9891,0.5013,2.612
2.6070,-2.6025,1.0482,0.7685,2.909
2.6120,-2.8176,1.1210,1.0529,3.210
2.6160,-2.8232,1.0523,1.3706,3.310
2.6210,-2.6764,0.8090,1.7050,3.275
2.6260,-2.6388,0.6855,2.0447,3.408
2.6310,-2.5598,0.6548,2.4033,3.572
2.6360,-2.3054,0.6586,2.7929,3.681
2.6420,-1.9069,0.5935,3.0195,3.620
2.6450,-1.4956,0.4928,3.0008,3.389
2.6500,-1.1523,0.3183,2.7951,3.040
2.6550,-0.8786,0.1062,2.6674,2.810
2.6600,-0.4909,-0.1020,2.5656,2.614
2.6650,-0.0737,-0.2699,2.5893,2.604
2.6700,-0.0940,-0.5000,2.4409,2.493
2.6760,0.1285,-0.5892,2.4373,2.511
2.6820,0.1678,-0.4134,2.0670,2.115
2.6850,0.2023,-0.1951,1.6899,1.713
2.6890,0.2395,-0.1546,1.3151,1.346
2.6940,0.1362,-0.2556,1.0401,1.080
2.6990,-0.0608,-0.3140,0.8857,0.942
2.7040,-0.1180,-0.2508,0.7431,0.793
2.7080,0.1031,-0.2599,0.8042,0.851
2.7130,0.5711,-0.5727,0.9175,1.223
2.7180,0.5073,-0.6463,0.7366,1.103
2.7230,0.4031,-0.4494,0.5196,0.796
2.7280,0.3957,-0.2352,0.3324,0.568
2.7320,0.3850,-0.1473,0.1692,0.446
2.7370,0.2734,-0.1782,0.0344,0.328
2.7420,0.1842,-0.2369,-0.0370,0.302
2.7480,0.1524,-0.3976,-0.0464,0.428
2.7520,0.0790,-0.5003,0.0024,0.506
2.7570,0.1961,-0.3131,0.0415,0.372
2.7620,0.4947,-0.1396,-0.0128,0.514
2.7660,0.8140,-0.1827,-0.1242,0.843
2.7710,0.8372,-0.3607,-0.2069,0.935
2.7770,0.6005,-0.4416,-0.2135,0.775
2.7810,0.1700,-0.4422,-0.1144,0.487
2.7860,-0.1584,-0.2313,-0.0651,0.288
2.7910,-0.3111,-0.0314,-0.0441,0.316
2.7950,-0.5607,-0.0385,-0.0093,0.562
2.8000,-0.8718,-0.0230,-0.0800,0.876
2.8050,-1.1255,0.0051,-0.2346,1.150
2.8100,-1.3392,0.0098,-0.4501,1.413
2.8150,-1.5252,0.0292,-0.5767,1.631
2.8200,-1.6148,0.0417,-0.5838,1.718
2.8250,-1.5892,-0.0939,-0.6080,1.704
2.8290,-1.4632,-0.2413,-0.6812,1.632
2.8350,-1.3449,-0.2954,-0.7050,1.547
2.8400,-1.2987,-0.2732,-0.6201,1.465
2.8490,-1.1885,-0.2655,-0.3839,1.277
2.8490,-1.0712,-0.2795,-0.0759,1.110
2.8550,-1.0207,-0.3485,0.3135,1.123
2.8590,-0.9768,-0.3672,0.1608,1.056
2.8640,-0.9610,-0.3286,-1.6689,1.954
2.8690,-1.1955,-0.2423,-4.5190,4.681
2.8730,-1.6167,-0.3574,-7.5734,7.752
2.8780,-1.9220,-0.5571,-9.3360,9.548
2.8830,-1.8656,-0.7053,-9.0797,9.296
2.8870,-1.4896,-0.7301,-7.3623,7.547
2.8920,-1.2470,-0.9157,-4.3740,4.640
2.8970,-0.0940,-0.5394,-1.5640,1.657
2.9020,1.0144,-0.3086,0.5099,1.177
2.9070,1.4927,-0.8246,2.7332,3.222
2.9120,1.6839,-1.0469,3.1858,3.752
2.9170,1.1823,-1.0930,2.2795,2.791
2.9220,0.3261,-0.9590,0.9023,1.357
2.9260,-0.3248,-0.6646,0.1223,0.750
2.9310,-0.3781,-0.6908,0.0917,0.793
2.9360,-0.2687,-0.7764,0.3787,0.905
2.9410,-0.2829,-0.5342,0.7652,0.975
2.9460,-0.1082,-0.6051,0.8261,1.030
2.9510,0.4099,-0.6447,0.5523,0.943
2.9560,0.8634,-0.7222,0.1570,1.137
2.9600,1.0453,-0.7967,-0.1431,1.322
2.9650,1.0351,-0.8514,-0.2844,1.370
2.9700,1.0126,-0.8337,-0.2554,1.336
2.9770,1.0876,-0.8393,-0.0933,1.377
2.9800,0.9853,-0.6528,0.0872,1.185
2.9840,0.7292,-0.5902,0.1197,0.946
2.9900,0.3114,-0.4484,0.0920,0.554
2.9940,-0.0637,-0.2923,0.1244,0.324
2.9990,-0.3874,-0.0864,0.2371,0.462
3.0040,-0.6338,0.2052,0.3370,0.747
3.0080,-0.7860,0.4247,0.3113,0.946
3.0130,-0.9487,0.6583,0.1942,1.171
3.0180,-1.1206,0.8849,0.0543,1.429
3.0240,-1.2288,0.9925,-0.0514,1.580
3.0280,-1.2704,1.0861,0.0294,1.672
3.0330,-1.3136,1.2446,0.1081,1.813
3.0380,-1.0761,1.0921,-0.0774,1.535
3.0430,-0.5543,0.9540,-0.4459,1.190
3.0470,-0.0276,0.9427,-0.7724,1.219
3.0520,0.1733,1.0512,-0.8867,1.386
3.0570,0.2216,0.9380,-0.8542,1.288
3.0620,0.1062,0.8590,-0.5719,1.037
3.0670,0.0306,0.6945,-0.2876,0.752
3.0710,-0.0772,0.3778,-0.0797,0.394
3.0760,-0.1240,0.0114,0.0531,0.135
3.0810,-0.2130,-0.1034,0.2780,0.365
3.0860,-0.2324,-0.2896,0.3645,0.520
3.0920,-0.1584,-0.5516,0.2713,0.635
3.0960,-0.1672,-0.8007,0.2220,0.848
3.1010,-0.2132,-1.0392,0.3074,1.104
3.1060,-0.2272,-1.2097,0.4295,1.304
3.1100,-0.2405,-1.3005,0.4334,1.392
3.1160,-0.1436,-1.3906,0.3449,1.440
3.1200,-0.0538,-1.3342,0.2557,1.360
3.1270,0.0264,-1.1651,0.1666,1.177
3.1300,0.1160,-0.9412,0.1428,0.959
3.1350,0.2268,-0.8294,0.2459,0.894
3.1410,0.1986,-0.6700,0.4790,0.847
3.1440,0.2510,-0.4155,0.5776,0.754
3.1490,0.3031,-0.1593,0.5759,0.670
3.1540,0.2859,-0.0423,0.6198,0.684
3.1590,0.1588,-0.0122,0.6791,0.698
3.1640,0.0864,-0.0285,0.6471,0.653
3.1680,0.1517,-0.0890,0.5216,0.550
3.1740,0.1921,-0.1675,0.3915,0.467
3.1780,0.2032,-0.2997,0.2736,0.454
3.1830,0.3456,-0.5740,0.1985,0.699
3.1880,0.4589,-0.6027,0.1460,0.772
3.1930,0.6439,-0.5820,0.1803,0.886
3.1980,0.7996,-0.4237,0.1797,0.923
3.2040,0.9266,-0.3814,0.1183,1.009
3.2080,0.9342,-0.4639,0.2598,1.075
3.2120,0.6683,-0.5105,0.6183,1.044
3.2170,0.1843,-0.6832,0.7680,1.044
3.2220,-0.1945,-0.7669,0.9532,1.239
3.2270,-0.6290,-0.5640,0.6801,1.085
3.2310,-0.9655,-0.2194,0.5446,1.130
3.2360,-1.3180,0.0826,0.5206,1.420
3.2410,-1.7170,0.1922,0.4521,1.786
3.2460,-2.0419,0.3280,0.3214,2.093
3.2510,-2.0543,0.3205,0.2159,2.090
3.2560,-1.9072,0.1601,-0.0166,1.914
3.2610,-1.9536,-0.0646,-0.2989,1.977
3.2660,-1.9779,-0.1478,-0.4496,2.034
3.2710,-1.8557,-0.1710,-0.4404,1.915
3.2750,-1.7038,-0.2393,-0.3744,1.761
3.2800,-1.1965,0.1662,-0.5436,1.325
3.2850,-1.3935,-0.0947,-0.4036,1.454
3.2890,-1.3811,-0.3477,-0.0596,1.425
3.2940,-1.1082,-0.2657,0.1549,1.150
3.2990,-1.0297,-0.1887,0.2382,1.074
3.3050,-1.0280,-0.0978,0.3841,1.102
3.3090,-0.9284,-0.0716,0.6402,1.130
3.3140,-0.7048,0.1003,0.7147,1.009
3.3190,-0.5623,0.2145,0.6556,0.890
3.3240,-0.4359,0.2139,0.5440,0.729
3.3290,-0.3324,0.1203,0.5423,0.647
3.3350,-0.2946,0.0030,0.5312,0.607
3.3380,-0.0708,-0.0353,0.4102,0.418
3.3430,0.0287,-0.1837,0.1745,0.255
3.3480,0.1898,-0.3583,-0.0205,0.406
3.3520,0.4704,-0.4255,0.0119,0.634
3.3580,0.7606,-0.5310,0.0971,0.933
3.3630,1.0204,-0.7273,0.0176,1.253
3.3670,1.2654,-0.8017,-0.0854,1.500
3.3720,1.2413,-0.7373,-0.2835,1.471
3.3770,1.0303,-0.6252,-0.4043,1.271
3.3820,0.6856,-0.5634,-0.3546,0.956
3.3860,0.3220,-0.6476,-0.0700,0.727
3.3910,0.1402,-0.6767,0.3345,0.768
3.3960,-0.0614,-0.5671,0.5860,0.818
3.4010,-0.2683,-0.3740,0.6223,0.774
3.4070,-0.3734,-0.1140,0.6270,0.739
3.4110,0.6084,0.4279,1.0354,1.275
3.4170,-0.0469,0.5892,0.2397,0.638
3.4200,-0.3199,0.5928,0.2529,0.720
3.4250,-0.6951,0.5394,0.0337,0.880
3.4300,-0.9613,0.5033,0.0979,1.089
3.4350,-1.4148,0.5704,0.0721,1.527
3.4400,-1.4917,0.4368,0.4938,1.631
3.4450,-0.9248,0.2437,1.2955,1.610
3.4490,-0.4987,-0.0426,1.5524,1.631
3.4540,-0.0782,-0.4552,1.4448,1.517
3.4590,0.4213,-0.8004,0.9015,1.277
3.4640,0.5776,-0.6312,0.8631,1.215
3.4690,0.4066,-0.3779,-0.1091,0.566
3.4740,-0.1232,-0.2986,-0.8294,0.890
3.4790,0.0355,-0.3601,-0.4054,0.543
3.4830,-0.5867,-0.2497,-0.8432,1.057
3.4880,-0.7387,-0.1975,-0.4870,0.907
3.4930,-0.4326,-0.4139,-0.2762,0.659
3.4980,-0.3744,-0.4900,0.0413,0.618
3.5030,-0.4822,-0.5644,0.1780,0.763
3.5080,-0.4213,-0.8376,0.0806,0.941
3.5120,-0.9285,-0.9433,-0.3500,1.369
3.5170,-0.9966,-1.3353,-0.7592,1.831
3.5220,-1.2445,-1.5999,-0.3087,2.050
3.5280,-1.5018,-1.7042,0.0695,2.273
3.5320,-1.8695,-1.5604,0.1947,2.443
3.5380,-2.0278,-1.2165,0.3348,2.388
3.5420,-1.9443,-0.6679,0.5752,2.135
3.5480,-1.5362,-0.0747,0.9794,1.823
3.5530,-0.6605,0.3528,1.1954,1.411
3.5560,0.3252,0.5865,1.0033,1.207
3.5610,1.0930,0.7485,0.8123,1.554
3.5660,1.5543,0.6527,0.7425,1.842
3.5710,1.9997,0.5404,0.6152,2.161
3.5760,2.1156,0.8467,0.4713,2.327
3.5810,1.7473,1.0907,0.6770,2.168
3.5860,1.5542,1.0810,0.5867,1.982
3.5900,1.3349,0.9854,0.4728,1.725
3.5960,0.6020,0.9571,0.4998,1.236
3.6010,0.1062,0.8046,0.3024,0.866
3.6050,-0.2601,0.4253,0.1770,0.529
3.6100,-0.4643,-0.0728,0.0920,0.479
3.6150,-0.4740,-0.4935,0.0305,0.685
3.6200,-0.4643,-0.7606,0.0017,0.891
3.6250,-0.5573,-0.8718,0.0082,1.035
3.6300,-0.5973,-0.9541,-0.0140,1.126
3.6340,-0.8069,-0.7401,0.5278,1.216
3.6390,-0.7495,-0.6357,0.2976,1.027
3.6440,-0.2017,-0.8489,-0.0601,0.875
3.6490,0.1251,-0.8157,-0.0683,0.828
3.6540,0.3958,-0.7826,-0.0758,0.880
3.6580,0.6527,-0.6183,-0.0703,0.902
3.6630,0.6489,-0.3924,0.0723,0.762
3.6680,0.7066,0.0552,0.1200,0.719
3.6730,1.1269,0.3180,0.0655,1.173
3.6770,2.2671,0.7550,1.5313,2.838
3.6820,2.1588,0.2357,2.7948,3.539
3.6870,1.0942,-0.4109,1.8574,2.195
3.6920,0.4562,-0.0321,0.3813,0.595
3.6970,-0.0475,0.3355,-0.5715,0.664
3.7030,-0.3914,0.2057,-0.7409,0.863
3.7080,-0.7277,-0.1257,-0.5189,0.903
3.7120,-0.3391,-0.3291,0.1721,0.503
3.7160,0.0937,-0.6436,0.9843,1.180
3.7210,-0.7045,-0.6170,1.5845,1.841
3.7260,-1.1778,-0.4613,1.6446,2.075
3.7310,-0.7550,0.0319,1.0045,1.257
3.7360,-0.4220,0.4866,0.1576,0.663
3.7410,-0.5598,0.6231,-0.4434,0.948
3.7450,-0.9908,0.5756,-0.7093,1.348
3.7510,-1.2676,0.4400,-0.4737,1.423
3.7550,-1.3230,0.2545,-0.1149,1.352
3.7600,-1.2495,-0.1578,-0.0154,1.260
3.7650,-1.5784,-0.6366,0.0835,1.704
3.7700,-1.6834,-1.1342,0.2775,2.049
3.7750,-1.5435,-1.6242,0.2464,2.254
3.7800,-1.3471,-1.8822,0.3348,2.339
3.7840,-1.4285,-1.6933,0.2774,2.233
3.7890,-1.0130,-1.4906,0.4760,1.864
3.7940,0.5927,-1.4343,1.2798,2.012
3.7980,0.5359,-1.2567,0.5357,1.467
3.8040,0.2703,-1.0411,-0.2221,1.098
3.8080,-0.1447,-0.4792,0.0672,0.505
3.8130,-0.1983,0.2515,-0.1126,0.340
3.8190,0.2634,0.7065,-0.3377,0.826
3.8230,0.4891,0.8554,-0.4818,1.097
3.8280,-0.1236,0.8013,-0.3253,0.874
3.8330,-0.3835,0.3750,0.0530,0.539
3.8400,-0.4636,-0.1365,-0.1001,0.494
3.8440,-0.7348,-0.3102,0.0098,0.798
3.8480,-0.9054,-0.4956,0.4259,1.117
3.8520,-0.9455,-0.5946,0.3066,1.158
3.8570,-1.1520,-0.3017,0.0850,1.194
3.8620,0.9011,-0.6496,0.2391,1.136
3.8670,1.1532,-0.9608,0.5078,1.585
3.8710,-0.6244,-0.8556,0.6881,1.263
3.8760,-0.1840,-0.4709,0.9455,1.072
3.8810,0.2361,0.1235,0.5267,0.590
3.8860,0.4653,0.4995,0.3285,0.758
3.8910,-0.7946,0.9560,0.1065,1.248
3.8960,-0.1938,0.9195,-0.1224,0.948
3.9010,0.2455,0.4791,0.2846,0.609
3.9050,0.4777,0.2138,-0.0519,0.526
3.9100,1.9552,0.5869,1.2737,2.406
3.9150,2.0378,-0.2877,1.0524,2.311
3.9200,1.2149,-0.4321,1.1035,1.697
3.9250,1.2050,-0.5740,0.8874,1.603
3.9300,0.6318,-0.6678,0.4694,1.032
3.9340,0.2721,-0.2691,0.1888,0.427
3.9400,1.5984,-0.1482,0.2818,1.630
3.9450,0.5827,-0.2139,0.1843,0.648
3.9490,0.0329,-0.0500,0.4937,0.497
3.9540,0.8861,-0.0489,-0.6407,1.095
3.9590,-0.2125,1.3040,0.5639,1.436
3.9630,-1.1954,0.4062,0.5714,1.386
3.9680,-1.4341,-0.8469,0.6519,1.789
3.9730,-1.2309,-1.2263,0.4172,1.787
3.9780,-1.2449,-0.9788,0.4570,1.648
3.9830,-1.4403,-0.6909,0.4175,1.651
3.9870,-1.5511,-0.2145,0.2040,1.579
3.9920,-1.4725,-0.0184,0.1894,1.485
3.9970,-1.4206,0.0843,0.2488,1.445
4.0020,-1.4152,0.1294,0.2266,1.439
4.0070,-1.2462,0.0119,0.1803,1.259
4.0120,-0.9061,-0.0529,0.2057,0.931
4.0170,-0.5161,-0.0937,0.3407,0.626
4.0220,-0.1835,-0.0603,0.4564,0.496
4.0270,0.0078,0.0950,0.5097,0.519
4.0310,-0.1336,0.2310,0.4600,0.532
4.0360,-0.3349,0.2592,0.3579,0.554
4.0420,-0.3503,0.1296,0.2439,0.446
4.0460,-0.4190,-0.0334,0.0345,0.422
4.0510,-0.3832,-0.2727,-0.0244,0.471
4.0640,-0.2928,-0.5188,0.0171,0.596
4.0650,-0.4005,-0.5591,0.0465,0.689
4.0670,-0.2230,-0.5228,0.1525,0.588
4.0700,-0.0955,-0.5176,0.2250,0.572
4.0750,-0.2543,-0.3045,0.1040,0.410
4.0800,-0.2024,-0.0820,0.1147,0.247
4.0850,0.0644,0.0158,0.1996,0.210
4.0900,0.1542,-0.0418,-0.0190,0.161
4.0940,-0.1619,-0.0587,-0.1011,0.200
4.0990,0.0146,-0.0851,0.1370,0.162
4.1040,-0.1941,-0.1258,0.0736,0.243
4.1090,-0.3929,-0.0997,0.0298,0.406
4.1140,-0.3381,-0.0736,0.0340,0.348
4.1190,-0.1877,0.0696,0.0740,0.213
4.1240,-0.1880,0.1887,-0.2110,0.340
4.1280,-0.0803,0.2312,-0.0704,0.255
4.1330,-0.3595,0.3575,-0.1357,0.525
4.1380,-0.7128,0.6938,-0.2678,1.030
4.1430,-0.8401,0.6736,-0.1060,1.082
4.1480,-0.4267,0.4667,0.0124,0.632
4.1520,-0.6911,0.1047,-0.2447,0.741
4.1570,-0.5530,0.0035,-0.1040,0.563
4.1620,0.0198,-0.0044,0.0271,0.034
4.1690,0.6823,-0.1795,0.1624,0.724
4.1730,0.7990,-0.1847,-0.1068,0.827
4.1780,0.3405,-0.0774,-0.4374,0.560
4.1830,-0.2287,0.1705,-0.7453,0.798
4.1880,-1.3649,0.8816,-1.7543,2.391
4.1920,-1.4585,0.4757,-1.3306,2.031
4.1970,0.1884,-0.3097,0.4278,0.561
4.2010,0.3232,-0.3867,0.7349,0.891
4.2060,1.3487,-0.3731,0.8270,1.625
4.2120,2.8116,0.0037,0.4347,2.845
4.2170,3.7996,-0.0452,0.3855,3.819
4.2210,4.8483,-0.5580,0.7491,4.937
4.2270,5.0575,-1.3742,1.3209,5.405
4.2310,2.5724,-1.9896,0.8365,3.358
4.2370,1.0464,-2.1466,0.0026,2.388
4.2430,0.5172,-2.1415,-0.6135,2.287
4.2460,0.2804,-2.2346,-1.1361,2.522
4.2530,-0.7271,-1.9540,-2.1079,2.965
4.2560,-1.5921,-1.3788,-2.8246,3.523
4.2600,-2.0989,-0.9637,-3.0979,3.864
4.2650,-2.1392,-0.8256,-2.8492,3.657
4.2690,-2.1153,-0.7902,-2.4849,3.358
4.2740,-2.0284,-0.8025,-2.0260,2.977
4.2790,-1.9107,-0.7983,-1.6445,2.644
4.2850,-1.7538,-0.7632,-1.4580,2.405
4.2880,-1.6014,-0.7259,-1.5149,2.321
4.2940,-1.4421,-0.6813,-1.6632,2.304
4.3000,-1.2453,-0.6054,-1.8135,2.282
4.3040,-0.9772,-0.5216,-1.9985,2.285
4.3100,-0.7296,-0.3483,-2.1182,2.267
4.3140,-0.4530,-0.1736,-2.2185,2.271
4.3180,-0.2173,0.0147,-2.2997,2.310
4.3240,-0.0190,0.1333,-2.3644,2.368
4.3290,0.1403,0.2828,-2.3484,2.370
4.3340,0.2519,0.4443,-2.2876,2.344
4.3380,0.3663,0.6156,-2.2587,2.370
4.3440,0.4530,0.7181,-2.2066,2.364
4.3490,0.4834,0.8473,-2.1332,2.346
4.3540,0.5079,0.9321,-2.1256,2.376
4.3570,0.4715,0.9845,-2.0516,2.324
4.3620,0.3384,1.0766,-1.9306,2.236
4.3670,0.1483,1.1007,-1.8649,2.171
4.3720,-0.0877,1.0694,-1.6837,1.996
4.3770,-0.3448,0.9443,-1.5344,1.834
4.3830,-0.6082,0.8139,-1.3498,1.689
4.3870,-0.7363,0.5846,-1.3342,1.632
4.3930,-0.8999,0.3908,-1.2568,1.594
4.3970,-0.8658,0.0243,-1.3314,1.588
4.4020,-0.8354,-0.3737,-1.3063,1.595
4.4070,-0.7347,-0.7224,-1.2422,1.614
4.4120,-0.7579,-0.9158,-1.1019,1.621
4.4180,-0.6973,-1.1126,-1.0820,1.701
4.4210,-0.5906,-1.1627,-1.0326,1.663
4.4270,-0.4120,-1.1888,-1.0515,1.640
4.4310,-0.2937,-1.1142,-1.0241,1.542
4.4370,-0.1759,-1.0260,-0.9862,1.434
4.4420,0.0136,-1.0300,-1.0793,1.492
4.4460,0.0371,-1.0149,-1.0191,1.439
4.4510,0.0097,-0.9107,-0.8408,1.240
4.4550,-0.0956,-0.7878,-0.7686,1.105
4.4580,0.0251,-0.6961,-0.7242,1.005
4.4640,-0.1087,-0.4320,-0.2519,0.512
4.4690,-0.1901,-0.3546,-0.0935,0.413
4.4750,-0.4052,-0.2230,0.1286,0.480
4.4780,-0.3236,-0.3263,-0.0451,0.462
4.4840,-0.4171,-0.5228,0.0572,0.671
4.4870,-0.4462,-0.4731,0.2317,0.690
4.4920,-0.4616,-0.4962,0.3952,0.785
4.5020,-0.4150,-0.5038,0.6297,0.907
4.5060,-0.4375,-0.6468,0.5437,0.951
4.5090,-0.4159,-0.7368,0.4229,0.946
4.5130,-0.3700,-0.8084,0.4554,0.999
4.5180,-0.3185,-1.1084,0.2547,1.181
4.5240,-0.2790,-1.1038,0.6410,1.307
4.5260,-0.3199,-1.0377,0.8545,1.382
4.5330,-0.2611,-1.1981,0.7082,1.416
4.5360,-0.3753,-1.1084,1.3129,1.759
4.5410,-0.4539,-1.2239,1.7616,2.192
4.5460,-0.5622,-1.2351,1.8077,2.260
4.5500,-0.5184,-1.2440,1.7018,2.171
4.5550,-0.3784,-1.2564,1.8615,2.277
4.5600,-0.3428,-1.2946,1.9028,2.327
4.5660,-0.1672,-1.3712,1.8719,2.326
4.5700,-0.0695,-1.5413,1.5664,2.199
4.5750,-0.1018,-1.6567,1.3299,2.127
4.5790,-0.1376,-1.7075,1.9758,2.615
4.5840,0.1007,-1.6293,2.0014,2.583
4.5890,0.1736,-1.6169,1.9971,2.575
4.5940,0.1723,-1.6617,2.0798,2.668
4.5980,0.0188,-1.8364,1.4269,2.326
4.6050,0.2525,-1.7673,1.3436,2.234
4.6080,0.4124,-1.6631,1.5461,2.308
4.6130,0.4251,-1.6615,1.9411,2.590
4.6180,0.2505,-1.6896,2.1199,2.722
4.6230,0.2558,-1.7212,2.2079,2.811
4.6270,0.2775,-1.6087,2.2193,2.755
4.6330,0.3249,-1.5993,2.1420,2.693
4.6370,0.3766,-1.5502,2.2274,2.740
4.6420,0.4895,-1.5069,2.3060,2.798
4.6470,0.3366,-1.5110,2.1850,2.678
4.6510,0.2811,-1.4945,2.6906,3.091
4.6570,0.2990,-1.4055,2.7051,3.063
4.6610,0.3011,-1.3299,2.2336,2.617
4.6660,0.3551,-1.3438,1.9536,2.398
4.6720,0.3686,-1.2825,2.0684,2.461
4.6770,0.3843,-1.2554,2.1155,2.490
4.6810,0.4748,-1.2385,2.1302,2.509
4.6860,0.5849,-1.2269,1.6964,2.174
4.6900,0.7034,-1.1867,1.5271,2.058
4.6960,0.7978,-1.1031,1.5550,2.067
4.7000,0.8861,-1.0477,1.5077,2.039
4.7050,0.8571,-1.0230,1.5263,2.028
4.7100,0.8104,-1.0193,1.3906,1.905
4.7240,0.8469,-1.0266,1.0979,1.725
4.7240,0.9530,-1.0427,1.0145,1.739
4.7260,0.9090,-0.9981,1.1352,1.764
4.7290,0.8831,-0.9458,1.1372,1.723
4.7350,0.8306,-0.9115,1.1253,1.669
4.7390,0.8250,-0.8714,0.9391,1.524
4.7440,0.7979,-0.8442,0.7605,1.388
4.7490,0.8176,-0.8252,0.4963,1.263
4.7540,0.8907,-0.8067,0.2209,1.222
4.7580,0.8988,-0.7981,-0.0206,1.202
4.7630,0.8962,-0.6911,-0.2503,1.159
4.7680,0.8645,-0.5408,-0.2745,1.056
4.7730,0.7828,-0.3803,-0.3303,0.931
4.7780,0.8503,-0.0757,-0.5420,1.011
4.7830,0.8252,0.1676,-0.4761,0.967
4.7870,0.6810,0.3419,-0.3386,0.834
4.7920,0.6960,0.6624,-0.4355,1.055
4.7970,0.6034,0.9735,-0.3843,1.208
4.8020,0.4392,1.1862,-0.5056,1.362
4.8070,0.4117,1.4391,-0.8878,1.740
4.8120,0.4019,1.7658,-1.1166,2.128
4.8170,0.3268,1.9566,-1.2805,2.361
4.8210,0.2612,2.0976,-1.2673,2.465
4.8280,0.2229,2.1750,-1.2634,2.525
4.8310,0.0679,2.0865,-1.0730,2.347
4.8360,0.0680,1.9598,-0.9547,2.181
4.8450,0.0725,1.6731,-0.6409,1.793
4.8450,-0.0871,1.3434,-0.2348,1.367
4.8500,-0.0759,1.0608,-0.2049,1.083
4.8550,-0.1056,0.7734,-0.0271,0.781
4.8600,-0.1399,0.4448,0.0569,0.470
4.8660,-0.0693,0.1779,-0.1009,0.216
4.8720,-0.1096,-0.1133,-0.0605,0.169
4.8750,-0.2582,-0.3669,-0.3071,0.544
4.8790,-0.2327,-0.4799,-0.3384,0.632
4.8850,-0.2429,-0.5601,-0.4175,0.740
4.8900,-0.2634,-0.6143,-0.4630,0.813
4.8940,-0.2905,-0.6611,-0.3652,0.809
4.9010,-0.4536,-0.7104,-0.1886,0.864
4.9050,-0.3849,-0.6836,-0.1078,0.792
4.9090,-0.2799,-0.6811,0.1785,0.758
4.9160,-0.3648,-0.8163,-0.2517,0.929
4.9190,-0.2988,-0.8874,-1.0050,1.374
4.9250,-0.3681,-0.9189,-1.6952,1.963
4.9300,-0.3763,-0.9964,-2.1998,2.444
4.9340,-0.5391,-1.0251,-2.3386,2.610
4.9430,-0.7198,-1.0696,-2.5375,2.846
4.9450,-0.9710,-1.0909,-2.9343,3.278
4.9510,-1.2263,-1.1229,-3.1406,3.554
4.9540,-1.6926,-1.1361,-3.2807,3.862
4.9570,-2.2102,-1.1747,-3.5435,4.338
4.9630,-2.6631,-1.1202,-3.9376,4.884
4.9680,-3.1894,-1.0848,-4.2547,5.427
4.9730,-3.6858,-1.0444,-4.3929,5.829
4.9770,-4.1365,-1.0339,-4.2491,6.019
4.9830,-4.5306,-0.9627,-3.9263,6.072
4.9880,-4.7986,-0.8544,-3.4491,5.971
4.9920,8.7152,-1.7904,-2.4978,9.241
4.9970,20.0973,-4.6824,3.5029,20.931
5.0010,16.5171,-3.9341,7.8318,18.698
5.0070,6.7171,-2.2349,7.3807,10.227
5.0130,3.6337,1.9825,6.7593,7.926
5.0170,9.8002,2.9218,12.9243,16.481
5.0210,11.3665,1.5041,12.6057,17.040
5.0260,11.4216,-0.4443,11.1385,15.960
5.0310,10.4156,-1.4277,9.8654,14.417
5.0370,8.4144,-1.1763,7.6757,11.450
5.0410,6.2938,0.6480,8.0292,10.223
5.0460,5.0380,6.4957,16.0246,18.010
5.0500,5.5579,7.1030,11.6290,14.717
5.0550,3.9795,6.4487,8.4596,11.357
5.0600,2.2384,4.8347,5.8047,7.879
5.0650,0.9647,3.5231,4.5928,5.868
5.0710,-0.3138,2.4059,3.3515,4.138
5.0740,-1.3549,0.9265,2.0020,2.589
5.0820,-1.9486,-0.3709,0.6149,2.077
5.0850,-2.3966,-1.4416,-0.5533,2.851
5.0900,-2.9564,-2.2349,-1.2565,3.913
5.0950,-3.5452,-2.7569,-1.6739,4.793
5.1000,-3.9876,-3.0807,-1.9663,5.409
5.1050,-4.0960,-3.3055,-2.1954,5.703
5.1090,-3.7845,-3.7849,-2.5955,5.949
5.1140,-2.4600,-4.4757,-2.8751,5.861
5.1180,-1.5094,-4.6981,-3.2241,5.894
5.1250,-0.9013,-4.7091,-3.5800,5.984
5.1270,-0.2531,-4.6929,-3.9324,6.128
5.1340,-0.2301,-4.1692,-4.1029,5.854
5.1380,-0.5009,-3.8309,-4.1566,5.675
5.1430,-0.6292,-3.5225,-3.9997,5.367
5.1470,-0.5063,-3.1760,-3.5593,4.797
5.1520,-0.3328,-2.8389,-2.8698,4.050
5.1580,0.0626,-2.6093,-2.0108,3.295
5.1620,0.3519,-2.5825,-0.9113,2.761
5.1670,0.3241,-2.8874,0.1767,2.911
5.1710,0.3208,-3.2584,1.2617,3.509
5.1760,0.1363,-3.5510,2.0667,4.111
5.1810,-0.2960,-3.5118,2.5458,4.348
5.1860,-0.7202,-3.3051,2.4971,4.205
5.1910,-1.1272,-3.0462,2.1144,3.876
5.1960,-1.4086,-2.9063,1.5191,3.569
5.2010,-1.5620,-2.9206,1.0079,3.462
5.2070,-1.5901,-3.0496,0.6392,3.498
5.2100,-1.4225,-3.4678,0.4129,3.771
5.2180,-1.2836,-3.8275,0.2033,4.042
5.2200,-0.9517,-4.1657,-0.0688,4.274
5.2280,-0.8256,-4.2666,-0.2828,4.355
5.2310,-0.6706,-4.2736,-0.5034,4.355
5.2360,-0.5663,-4.1696,-0.5024,4.238
5.2410,-0.4961,-4.0367,-0.4859,4.096
5.2440,-0.5522,-3.8099,-0.3812,3.869
5.2490,-0.7704,-3.6348,-0.2434,3.724
5.2530,-0.9791,-3.6284,0.1735,3.762
5.2590,-1.6883,-3.8426,0.5336,4.231
5.2630,-3.2341,-4.7004,0.5768,5.735
5.2700,-3.7657,-5.1245,0.8093,6.411
5.2720,-3.9972,-4.6797,2.7453,6.739
5.2780,-4.5061,-3.4980,5.0712,7.633
5.2820,-4.6983,-3.1023,5.3418,7.761
5.2880,-4.6574,-3.5330,4.8414,7.590
5.2920,-4.1813,-3.2940,3.5370,6.391
5.2980,-4.6169,-5.1924,3.7423,7.892
5.3030,-4.5510,-7.1569,0.2707,8.486
5.3060,-4.9147,-7.6972,-0.8222,9.169
5.3110,-5.4114,-8.0041,-1.0182,9.715
5.3170,-5.7903,-8.2043,-1.0489,10.096
5.3210,-6.2299,-8.3961,-1.2191,10.526
5.3300,-6.4590,-8.2159,-1.1729,10.516
5.3310,-6.5411,-7.9448,-1.3029,10.373
5.3370,-6.6937,-7.4563,-1.4241,10.121
5.3420,-6.7936,-7.0720,-1.4154,9.908
5.3470,-6.6693,-7.0495,-1.3552,9.798
5.3510,-6.4367,-7.4732,-1.1840,9.934
5.3550,-6.4258,-7.2999,-0.9961,9.776
5.3600,-6.4232,-6.6170,-1.2140,9.301
5.3650,-5.8309,-6.2831,-2.0413,8.812
5.3690,-5.1957,-6.4870,-2.4579,8.667
5.3750,-4.4928,-6.4914,-2.7933,8.374
5.3790,-3.4584,-6.3369,-3.3985,7.979
5.3900,-2.3986,-6.2624,-3.7804,7.698
5.3930,-2.7673,-6.6221,-3.2017,7.859
5.3960,-5.2633,-7.4786,-1.6362,9.290
5.3980,-6.7391,-7.7009,-0.6566,10.254
5.4030,-7.8215,-7.6542,-0.2215,10.946
5.4090,-8.3114,-7.4010,-0.0729,11.129
5.4130,-8.1877,-7.5504,-0.1277,11.138
5.4200,-6.2269,-7.1954,-1.5578,9.642
5.4250,-2.7047,-6.9713,-6.2723,9.760
5.4290,12.2636,-7.1204,-15.0333,20.666
5.4350,16.3563,-6.9396,-14.0893,22.676
5.4400,16.0656,-6.5812,-11.1563,20.637
5.4460,10.6437,-5.6807,-7.7101,14.318
5.4500,5.9568,-4.8235,-5.2689,9.301
5.4520,2.5256,-4.1274,-3.5690,6.013
5.4570,-1.9532,-3.1870,-2.2442,4.360
5.4640,-4.8229,-2.5032,-1.2302,5.571
5.4660,-6.9671,-2.0030,-0.7407,7.287
5.4710,-8.6373,-1.5797,-0.4135,8.790
5.4750,-9.4180,-1.2858,-0.1490,9.507
5.4800,-9.5587,-1.1527,0.0373,9.628
5.4860,-9.5978,-1.0572,0.1583,9.657
5.4900,-9.6478,-0.9966,0.2854,9.703
5.4970,-9.6105,-0.9278,0.4381,9.665
5.5000,-9.5316,-0.8508,0.5280,9.584
5.5050,-9.4418,-0.8010,0.6358,9.497
5.5110,-8.5741,-0.7930,0.8822,8.656
5.5160,-8.7216,-0.6611,3.4383,9.398
5.5200,-9.1428,0.0642,5.4626,10.651
5.5270,-8.5991,0.4685,3.6517,9.354
5.5310,-9.7313,0.4801,3.5704,10.377
5.5370,-10.0867,0.4209,3.1730,10.582
5.5410,-9.7393,0.2105,2.2654,10.002
5.5450,-9.5998,0.4096,1.7501,9.767
5.5510,-9.5347,0.6851,1.6139,9.695
5.5530,-9.4791,1.0191,1.5567,9.660
5.5600,-9.4235,1.3642,1.4917,9.638
5.5650,-9.3546,1.6786,1.4359,9.612
5.5700,-9.2466,1.9477,1.3587,9.547
5.5750,-9.1854,2.2166,1.2940,9.537
5.5790,-9.1049,2.4716,1.2404,9.516
5.5850,-9.0014,2.7248,1.2195,9.483
5.5900,-8.8708,2.9292,1.1889,9.417
5.5940,-8.7682,3.1565,1.1512,9.390
5.5970,-8.6434,3.3681,1.1308,9.345
5.6020,-8.4829,3.5722,1.0826,9.268
5.6060,-8.3762,3.7928,1.0426,9.254
5.6110,-8.2689,4.0213,0.9942,9.248
5.6180,-8.1039,4.2096,0.9688,9.183
5.6210,-7.9086,4.3899,0.9165,9.092
5.6260,-7.7648,4.5981,0.8705,9.066
5.6310,-7.6163,4.7850,0.8332,9.033
5.6360,-7.4606,4.9696,0.8048,9.000
5.6400,-7.2680,5.1315,0.7497,8.928
5.6450,-7.0986,5.3087,0.7105,8.893
5.6490,-6.9249,5.4881,0.6421,8.859
5.6550,-6.7231,5.6503,0.5854,8.802
5.6600,-6.5662,5.8015,0.5337,8.778
5.6660,-6.3803,5.9509,0.4816,8.738
5.6710,-6.1643,6.0996,0.4392,8.683
5.6800,-5.9804,6.2597,0.4092,8.667
5.6830,-5.7822,6.3726,0.3658,8.613
5.6860,-5.5817,6.5095,0.3227,8.581
5.6910,-5.3851,6.6407,0.2806,8.554
5.6930,-5.1757,6.7542,0.2373,8.513
5.6980,-4.9480,6.8587,0.2101,8.460
5.7030,-4.7376,6.9700,0.1410,8.429
5.7100,-4.4983,7.0635,0.1216,8.375
5.7130,-4.3042,7.1605,0.0801,8.355
5.7200,-4.0935,7.2634,0.0526,8.338
5.7230,-3.8470,7.3412,0.0225,8.288
5.7320,-3.6177,7.4105,-0.0028,8.246
5.7360,-3.4128,7.4688,-0.0234,8.212
5.7400,-3.1726,7.5545,-0.0487,8.194
5.7440,-2.9469,7.6025,-0.0711,8.154
5.7500,-2.7279,7.6543,-0.0791,8.126
5.7540,-2.4935,7.6952,-0.0628,8.089
5.7590,-2.2485,7.7298,-0.0628,8.050
5.7690,-2.0211,7.7722,-0.0836,8.031
5.7710,-1.7987,7.7920,-0.0729,7.997
5.7740,-1.5640,7.8103,-0.0902,7.966
5.7790,-1.3198,7.7669,-0.0468,7.878
5.7830,-1.0826,7.7150,-0.0339,7.791
5.7890,-0.8496,7.6717,-0.0347,7.719
5.7950,-0.6272,7.5963,-0.0089,7.622
5.7990,-0.3776,7.5440,-0.0090,7.553
5.8030,-0.1974,7.4647,0.0267,7.467
5.8090,0.0589,7.3968,0.0172,7.397
5.8130,0.2731,7.3212,0.0458,7.326
5.8190,0.4879,7.2286,0.0813,7.246
5.8220,0.0691,-16.6750,19.0690,25.332
5.8300,-18.7515,-19.0578,2.7611,26.878
5.8340,-0.4419,5.0706,-1.9713,5.458
5.8380,-0.4795,5.0640,-1.4469,5.288
5.8550,-1.0299,5.0283,-0.2378,5.138
5.8590,-1.4494,5.0857,0.1008,5.289
5.8610,-1.9512,5.1460,-0.8858,5.574
5.8650,-2.2966,5.1495,-1.3413,5.796
5.8680,-2.7087,5.1060,-1.1248,5.888
5.8710,-3.1249,5.0641,-0.7698,6.000
5.8740,-3.5252,4.9893,-0.6690,6.146
5.8770,-3.8545,4.8947,-1.0080,6.311
5.8820,-4.1779,4.7783,-1.0412,6.432
5.8850,-4.5191,4.6745,-0.9322,6.568
5.8900,-4.8431,4.5366,-0.6954,6.672
5.8960,-5.1229,4.3774,-0.5063,6.757
5.9000,-5.4335,4.2261,-0.4920,6.901
5.9050,-5.6998,4.0581,-0.3621,7.006
5.9090,-5.9895,3.8523,-0.2740,7.127
5.9170,-6.2641,3.6671,-0.0834,7.259
5.9170,-6.5344,3.4481,0.1177,7.389
5.9260,-6.7930,3.2117,0.2817,7.519
5.9280,-7.0232,2.9721,0.4429,7.639
5.9330,-7.2371,2.7215,0.5989,7.755
5.9370,-7.4462,2.4484,0.7984,7.879
5.9470,-7.6142,2.1746,0.9777,7.979
5.9500,-7.7751,1.8692,1.1769,8.083
5.9550,-7.9002,1.5506,1.3896,8.170
5.9610,-8.0215,1.2641,1.5796,8.273
5.9640,-8.1104,0.9216,1.7643,8.351
5.9680,-8.1782,0.5905,1.9695,8.433
5.9740,-8.2313,0.2313,2.1627,8.514
5.9770,-8.2929,-0.1244,2.3580,8.623
5.9810,-8.3133,-0.4714,2.5491,8.708
5.9880,-8.3332,-0.8261,2.7049,8.800
5.9910,-8.3321,-1.2087,2.8861,8.900
5.9970,-8.3388,-1.5783,3.0618,9.022
6.0010,-8.3180,-1.9721,3.2164,9.134
6.0070,-8.2797,-2.3417,3.3324,9.227
6.0110,-8.2366,-2.7366,3.4591,9.343
6.0180,-8.1819,-3.1178,3.5694,9.455
6.0210,-8.0995,-3.5179,3.6698,9.563
6.0250,-8.0145,-3.9003,3.7233,9.660
6.0320,-7.9098,-4.2928,3.8143,9.775
6.0380,-7.8008,-4.6732,3.8439,9.873
6.0430,-7.6880,-5.0503,3.8738,9.981
6.0460,-7.5718,-5.4422,3.8993,10.107
6.0500,-7.4298,-5.8054,3.8868,10.199
6.0550,-7.2943,-6.1603,3.8676,10.301
6.0590,-7.1665,-6.5206,3.8203,10.415
6.0660,-6.9821,-6.8616,3.7858,10.496
6.0690,-6.8431,-7.2188,3.7146,10.618
6.0750,-6.6760,-7.5550,3.6400,10.719
6.0790,-6.5082,-7.8793,3.5582,10.821
6.8980,-6.2985,-8.2253,3.4389,10.916
6.9010,-6.0795,-8.5580,3.3041,11.005
6.9050,-5.8872,-8.8815,3.1550,11.113
6.9080,-5.6693,-9.1806,2.9951,11.198
6.9150,-5.4481,-9.4276,2.8367,11.252
6.9190,-5.2489,-9.6636,2.6714,11.317
6.9220,-5.0310,-9.9120,2.4859,11.390
6.9250,-4.8161,-10.1198,2.3218,11.445
6.9290,-4.5795,-10.3189,2.1386,11.490
6.9340,-4.3509,-10.5056,1.9291,11.533
6.9390,-4.0970,-10.6604,1.7447,11.553
6.9480,-3.8704,-10.8069,1.5601,11.585
6.9510,-3.6090,-10.9451,1.3457,11.603
6.9530,-3.3578,-11.0501,1.1445,11.606
6.9560,-3.0967,-11.1521,0.9697,11.615
6.9650,-2.8373,-11.2213,0.7614,11.599
6.9660,-2.5703,-11.2961,0.5711,11.599
6.9670,37.9564,31.4846,-8.7712,50.089
6.9680,0.0862,-6.6931,-0.4639,6.710
6.9690,-1.8363,-12.4616,-0.3570,12.601
6.9690,-1.6719,-12.5717,-0.2269,12.684
6.9700,-1.2622,-12.4872,-0.1485,12.552
6.9710,-0.9999,-12.3854,-0.3458,12.430
6.9720,-0.6634,-12.2880,-0.6941,12.325
6.9730,-0.3018,-12.1615,-0.9900,12.205
6.9740,0.0264,-12.0502,-1.0038,12.092
6.9740,0.3486,-11.8986,-0.9515,11.942
6.9750,0.7090,-11.7362,-1.0135,11.801
6.9780,1.1013,-11.5588,-1.1270,11.666
6.9790,1.4790,-11.3609,-1.2363,11.523
6.9800,1.8713,-11.1435,-1.2388,11.367
6.9820,2.2074,-10.9225,-1.1631,11.204
6.9830,2.5671,-10.6756,-1.1359,11.039
6.9840,2.8894,-10.4061,-1.0602,10.852
6.9850,3.2202,-10.1334,-1.0148,10.681
6.9870,3.5199,-9.8283,-0.9290,10.481
6.9880,3.7868,-9.5229,-0.8373,10.282
6.9890,4.0804,-9.2110,-0.7272,10.101
6.9890,4.3254,-8.9004,-0.5903,9.913
6.9900,4.5783,-8.5701,-0.4497,9.727
6.9900,4.7846,-8.2054,-0.2941,9.503
6.9910,5.0046,-7.8695,-0.1151,9.327
6.9910,5.1801,-7.5041,0.0615,9.119
6.9920,5.3525,-7.1526,0.2612,8.937
6.9930,5.4935,-6.7913,0.4389,8.746
6.9930,5.6669,-6.4647,0.6405,8.621
6.9940,5.8464,-6.1757,0.7374,8.536
6.9940,6.1824,-6.1657,0.8409,8.772
6.9950,11.7678,-15.3887,1.6633,19.444
6.9960,10.4333,-19.0019,2.2192,21.791
6.9960,-31.8965,-27.0930,-31.3789,52.307
6.9970,-25.1799,-15.9904,-5.2955,30.295
6.9980,5.7424,-0.3025,2.6762,6.343
6.9980,5.4299,-0.4828,3.8754,6.688
6.9990,5.3534,-0.6032,3.2181,6.275
6.9990,5.3177,-0.7515,2.8083,6.060
7.0000,5.1203,-0.8881,3.4000,6.210
7.0000,4.8462,-1.0314,4.3402,6.587
7.0010,4.5777,-1.1503,4.7261,6.679
7.0010,4.2606,-1.2901,4.7223,6.490
7.0020,3.9371,-1.4136,4.8221,6.384
7.0020,3.5690,-1.5535,5.1541,6.459
7.0030,3.1767,-1.6930,5.5518,6.617
7.0030,2.8115,-1.8418,5.8088,6.711
7.0030,2.4340,-1.9808,5.9962,6.768
7.0040,2.0647,-2.1195,6.1322,6.809
7.0040,1.7240,-2.2555,6.2761,6.888
7.0050,1.3727,-2.3960,6.4585,7.024
7.0050,1.0360,-2.5504,6.6333,7.182
7.0060,0.7009,-2.6852,6.7286,7.278
7.0060,0.2971,-2.7955,6.7969,7.355
7.0070,-0.0618,-2.9410,6.8286,7.435
7.0070,-0.4391,-3.0620,6.8714,7.536
7.0070,-0.9098,-3.3486,7.1116,7.913
7.0080,-1.3007,-3.4876,7.1457,8.057
7.0090,-0.1825,-5.9228,15.9145,16.982
7.0090,0.2909,-15.6350,46.1146,48.694
7.0100,-0.1615,-7.4003,8.4024,11.198
7.0100,-0.3508,-6.5645,7.5590,10.018
7.0110,-0.7319,-6.2459,7.1992,9.559
7.0110,-1.2131,-6.2766,6.8096,9.340
7.0120,-1.7923,-7.2140,6.2081,9.685
7.0120,37.1680,-38.7483,-32.2908,62.654
7.0130,-5.4427,-0.9911,4.4822,7.120
7.0130,-4.8434,0.1871,4.7434,6.782
7.0140,-3.3604,-0.0409,4.2866,5.447
7.0140,2.2328,-5.8323,-5.1244,8.078
7.0150,11.9539,-19.7489,-24.3877,33.581
7.0150,0.7151,-2.4890,3.1685,4.092
7.0160,-3.3453,-2.4400,-19.6227,20.055
7.0160,-11.0146,-2.5441,-30.8300,32.837
7.0170,-2.7237,-0.0215,3.1373,4.155
7.0180,-4.0667,-1.9934,-13.7076,14.436
7.0180,-8.8177,-7.7315,-31.9628,34.046
7.0190,-2.6235,-1.6479,5.8709,6.638
7.0190,-2.5302,-1.5884,7.4520,8.029
7.0200,-2.6708,-1.9823,7.4044,8.117
7.0200,-2.7756,-2.4108,7.2777,8.154
7.0210,-2.8047,-2.7919,7.0930,8.122
7.0210,-2.9214,-3.2302,6.8148,8.088
7.0220,-3.8359,-3.8053,11.2588,12.488
7.0230,-3.4181,-1.1155,28.9825,29.205
7.0230,-1.8424,0.0250,6.7708,7.017
7.0230,-1.4401,0.5465,6.8903,7.060
7.0230,-0.9265,0.9250,6.7254,6.852
7.0240,-0.6154,0.9958,3.1620,3.372
7.0240,11.0749,-3.2121,-31.9564,33.973
7.0240,-2.3883,0.0839,-8.5540,8.882
7.0240,-1.8398,-0.0540,8.5806,8.776
7.0240,-2.0412,-0.3751,16.7666,16.895
7.0250,-1.6924,0.3503,7.2864,7.489
7.0250,-1.6906,-0.0929,5.9134,6.151
7.0250,-1.6085,-0.4383,5.9578,6.187
7.0250,-1.6889,-0.6490,4.5453,4.892
7.0250,-1.1641,-0.5990,-8.7133,8.811
7.0260,-0.2777,1.0744,-29.5115,29.532
7.0260,-2.4730,0.3124,-13.3808,13.611
7.0260,-2.0312,-0.3376,2.8103,3.484
7.0260,-1.2763,0.8213,7.0068,7.169
7.0260,-1.0822,1.3507,5.4569,5.725
7.0270,-0.9874,0.6148,4.0929,4.255
7.0270,-0.8539,0.3093,-0.0379,0.909
7.0270,-0.2290,0.4123,-13.4719,13.480
7.0270,-0.9776,-0.5460,-11.9352,11.988
7.0270,-1.2760,-0.1506,-0.2346,1.306
7.0270,-1.0857,0.0058,1.4863,1.841
7.0270,-0.7963,0.2803,-0.7639,1.138
7.0280,-0.6751,0.5491,-2.9949,3.119
7.0280,-0.7812,0.3125,-1.9832,2.154
7.0280,-0.5772,0.2060,-2.1149,2.202
7.0280,-0.6782,0.1799,-3.3046,3.378
7.0280,-1.0875,0.0716,-2.9920,3.184
7.0280,-1.0089,0.1446,-2.3166,2.531
7.0290,-0.8328,0.2403,-2.3162,2.473
7.0290,-0.8013,0.2431,-2.2179,2.371
7.0290,-0.7347,0.2685,-2.2917,2.422
7.0290,-0.7953,0.2159,-2.3032,2.446
7.0290,-0.8841,0.1901,-2.4006,2.565
7.0290,-0.8755,0.1853,-2.4286,2.588
7.0300,-0.8295,0.2015,-2.3922,2.540
7.0300,-0.8293,0.2008,-2.3892,2.537
7.0300,-0.8286,0.2004,-2.3863,2.534
7.0300,-0.8275,0.2002,-2.3833,2.531
7.0300,-0.8263,0.2001,-2.3803,2.528
7.0300,-0.8253,0.1998,-2.3773,2.524
7.0300,-0.8246,0.1994,-2.3744,2.521
7.0310,-0.8238,0.1991,-2.3714,2.518
7.0310,-0.8228,0.1988,-2.3685,2.515
7.0310,-0.8218,0.1985,-2.3655,2.512
7.0310,-0.8209,0.1983,-2.3625,2.509
7.0310,-0.8200,0.1979,-2.3596,2.506
7.0310,-0.8191,0.1976,-2.3567,2.503
7.0320,-0.8182,0.1973,-2.3537,2.500
7.0320,-0.8173,0.1970,-2.3508,2.497
7.0320,-0.8164,0.1967,-2.3479,2.494
7.0320,-0.8155,0.1964,-2.3449,2.490
7.0320,-0.8361,0.1962,-2.2918,2.447
7.0320,-0.8184,0.2079,-2.2985,2.449
7.0320,-0.8271,0.1980,-2.3100,2.462
7.0330,-0.8190,0.2049,-2.2999,2.450
7.0330,-0.8014,0.2165,-2.2875,2.433
7.0330,-0.7934,0.2186,-2.2799,2.424
7.0330,-0.8020,0.2111,-2.2818,2.428
7.0330,-0.8083,0.2060,-2.2909,2.438
7.0330,-0.8050,0.2009,-2.2881,2.434
7.0330,-0.8161,0.2126,-2.2924,2.443
7.0340,-0.8104,0.2290,-2.2656,2.417
7.0340,-0.8070,0.2024,-2.2819,2.429
7.0340,-0.7989,0.2188,-2.2719,2.418
7.0340,-0.8124,0.1994,-2.2619,2.412
7.0340,-0.8091,0.2111,-2.2662,2.416
7.0340,-0.8081,0.1893,-2.2658,2.413
7.0340,-0.7976,0.2010,-2.2462,2.392
7.0350,-0.7848,0.2127,-2.2578,2.400
7.0350,-0.8078,0.2028,-2.2693,2.417
7.0350,-0.8068,0.2121,-2.2569,2.406
7.0350,-0.8035,0.1999,-2.2326,2.381
7.0360,-0.7978,0.1948,-2.2513,2.396
7.0360,-0.8016,0.2017,-2.2557,2.402
7.0360,-0.8007,0.1966,-2.2409,2.388
7.0360,-0.7902,0.2011,-2.2309,2.375
7.0360,-0.7941,0.1913,-2.2282,2.373
7.0360,-0.7860,0.2125,-2.2302,2.374
7.0360,-0.7947,0.2051,-2.2226,2.369
7.0370,-0.7889,0.2000,-2.2174,2.362
7.0370,-0.7952,0.1925,-2.2218,2.368
7.0370,-0.7608,0.1995,-2.2286,2.363
7.0370,-0.7934,0.2111,-2.2091,2.357
7.0370,-0.7853,0.2013,-2.2040,2.348
7.0370,-0.7796,0.1962,-2.2036,2.346
7.0380,-0.7811,0.2103,-2.2128,2.356
7.0380,-0.7658,0.2076,-2.2029,2.341
7.0380,-0.7832,0.2035,-2.1869,2.332
7.0380,-0.7696,0.1994,-2.1782,2.319
7.0380,-0.7633,0.2000,-2.1505,2.291
7.0380,-0.7523,0.2031,-2.1302,2.268
7.0380,-0.7389,0.1919,-2.1148,2.248
7.0390,-0.7495,0.1832,-2.1020,2.239
12.4610,-0.7338,0.1887,-2.0655,2.200
12.4610,-0.7206,0.1871,-2.0530,2.184
12.4610,-0.7361,0.1784,-2.0620,2.197
12.4610,-0.7181,0.1817,-2.0282,2.159
12.4610,-0.7098,0.1706,-2.0184,2.146
12.4620,-0.7063,0.1858,-2.0016,2.131
12.4620,-0.7005,0.1747,-1.9731,2.101
12.4620,-0.6852,0.1756,-1.9590,2.083
12.4620,-0.6866,0.1622,-1.9379,2.062
12.4630,-0.6714,0.1632,-1.9170,2.038
12.4630,-0.6778,0.1761,-1.9272,2.050
12.4630,-0.6864,0.1699,-1.8921,2.020
12.4630,-0.6594,0.1708,-1.8835,2.003
12.4640,-0.6587,0.1741,-1.8654,1.986
12.4640,-0.6557,0.1679,-1.8499,1.970
12.4640,-0.6431,0.1689,-1.8487,1.965
12.4640,-0.6544,0.1746,-1.8191,1.941
12.4640,-0.6324,0.1636,-1.8087,1.923
12.4640,-0.6224,0.1551,-1.7817,1.894
12.4650,-0.6268,0.1632,-1.7811,1.895
12.4650,-0.6216,0.1547,-1.7544,1.868
12.4650,-0.6212,0.1534,-1.7398,1.854
12.4650,-0.6209,0.1592,-1.7372,1.852
12.4660,-0.5873,0.1531,-1.7298,1.833
12.4660,-0.5991,0.1518,-1.7011,1.810
12.4660,-0.5918,0.1577,-1.6846,1.792
12.4660,-0.6011,0.1635,-1.6753,1.787
12.4660,-0.5771,0.1550,-1.6542,1.759
12.4660,-0.5866,0.1394,-1.6547,1.761
12.4670,-0.5795,0.1406,-1.6433,1.748
12.4670,-0.5700,0.1346,-1.6320,1.734
12.4670,-0.5629,0.1335,-1.6041,1.705
12.4670,-0.5630,0.1300,-1.5955,1.697
12.4670,-0.5702,0.1360,-1.5870,1.692
12.4670,-0.5536,0.1301,-1.5690,1.669
12.4670,-0.5562,0.1480,-1.5535,1.657
12.4680,-0.5397,0.1396,-1.5335,1.632
12.4680,-0.5304,0.1289,-1.5041,1.600
12.4680,-0.5498,0.1397,-1.5105,1.614
12.4680,-0.5239,0.1314,-1.5122,1.606
12.4680,-0.5196,0.1469,-1.4853,1.580
12.4690,-0.5295,0.1243,-1.4896,1.586
12.4690,-0.5038,0.1304,-1.4653,1.555
12.4690,-0.5043,0.1316,-1.4317,1.524
12.4690,-0.5097,0.1210,-1.4483,1.540
12.4690,-0.5126,0.1318,-1.4409,1.535
12.4690,-0.5107,0.1307,-1.4028,1.499
12.4690,-0.4994,0.1272,-1.3911,1.484
12.4700,-0.4786,0.1167,-1.3914,1.476
12.4700,-0.4771,0.1251,-1.3751,1.461
12.4700,-0.4850,0.1288,-1.3541,1.444
12.4700,-0.4953,0.1253,-1.3547,1.448
12.4700,-0.4675,0.1076,-1.3577,1.440
12.4700,-0.4873,0.1138,-1.3392,1.430
12.4700,-0.4786,0.1271,-1.3233,1.413
12.4710,-0.4557,0.1094,-1.3123,1.393
12.4710,-0.4733,0.1298,-1.2871,1.378
12.4710,-0.4622,0.1263,-1.2978,1.383
12.4710,-0.4656,0.1300,-1.2846,1.373
12.4710,-0.4617,0.1193,-1.2644,1.351
12.4710,-0.4485,0.1254,-1.2610,1.344
12.4720,-0.4448,0.1124,-1.2481,1.330
12.4720,-0.4577,0.1091,-1.2329,1.320
12.4720,-0.4183,0.1034,-1.2179,1.292
12.4720,-0.4196,0.1097,-1.2173,1.292
12.4720,-0.4257,0.1040,-1.2047,1.282
12.4720,-0.4198,0.1031,-1.2018,1.277
12.4720,-0.4116,0.1046,-1.1966,1.270
12.4730,-0.4177,0.1179,-1.1771,1.255
12.4730,-0.4190,0.0980,-1.1625,1.240
12.4730,-0.4132,0.1043,-1.1529,1.229
12.4730,-0.4050,0.1010,-1.1693,1.242
12.4730,-0.4064,0.1002,-1.1525,1.226
12.4730,-0.3936,0.0945,-1.1310,1.201
12.4730,-0.3998,0.1032,-1.1121,1.186
12.4730,-0.4013,0.0928,-1.1123,1.186
12.4740,-0.4051,0.0991,-1.0936,1.170
12.4740,-0.3899,0.1006,-1.1058,1.177
12.4740,-0.3867,0.1045,-1.0871,1.159
12.4740,-0.3788,0.0917,-1.0638,1.133
12.4740,-0.3828,0.0980,-1.0692,1.140
12.4740,-0.3725,0.0924,-1.0555,1.123
12.4750,-0.3765,0.0869,-1.0444,1.114
12.4750,-0.3663,0.0861,-1.0333,1.100
12.4750,-0.3514,0.0877,-1.0294,1.091
12.4750,-0.3651,0.0989,-1.0256,1.093
12.4750,-0.3502,0.0886,-1.0052,1.068
12.4750,-0.3545,0.0949,-0.9968,1.062
12.4750,-0.3587,0.0917,-0.9956,1.062
12.4750,-0.3438,0.0980,-0.9849,1.048
12.4760,-0.3386,0.0996,-0.9696,1.032
12.4760,-0.3500,0.0917,-0.9734,1.038
12.4760,-0.3424,0.0838,-0.9653,1.028
12.4760,-0.3348,0.0949,-0.9620,1.023
12.4760,-0.3463,0.0823,-0.9445,1.009
12.4760,-0.3316,0.0768,-0.9366,0.997
12.4760,-0.3289,0.0880,-0.9169,0.978
12.4760,-0.3309,0.0873,-0.9306,0.992
12.4770,-0.3329,0.0794,-0.8992,0.962
12.4770,-0.3136,0.0859,-0.9059,0.962
12.4770,-0.3229,0.0709,-0.8960,0.955
12.4770,-0.3130,0.0845,-0.8767,0.935
12.4770,-0.3152,0.0862,-0.8860,0.944
12.4770,-0.3078,0.0879,-0.8809,0.937
12.4770,-0.2981,0.0895,-0.8784,0.932
12.4770,-0.2980,0.0768,-0.8687,0.922
12.4780,-0.2908,0.0786,-0.8543,0.906
12.4780,-0.3027,0.0779,-0.8424,0.899
12.4780,-0.2883,0.0867,-0.8402,0.892
12.4780,-0.2954,0.0789,-0.8521,0.905
12.4780,-0.3024,0.0759,-0.8379,0.894
12.4780,-0.2833,0.0847,-0.8214,0.873
12.4780,-0.2976,0.0698,-0.8027,0.859
12.4780,-0.2857,0.0857,-0.8055,0.859
12.4790,-0.2715,0.0755,-0.8059,0.854
12.4790,-0.2716,0.0630,-0.8063,0.853
12.4790,-0.2884,0.0696,-0.7878,0.842
12.4790,-0.2789,0.0761,-0.7717,0.824
12.4790,-0.2600,0.0660,-0.7724,0.818
12.4790,-0.2650,0.0726,-0.7541,0.803
12.4790,-0.2675,0.0625,-0.7644,0.812
12.4790,-0.2677,0.0762,-0.7533,0.803
12.4800,-0.2679,0.0660,-0.7423,0.792
12.4800,-0.2704,0.0630,-0.7432,0.793
12.4800,-0.2610,0.0625,-0.7489,0.796
12.4800,-0.2470,0.0596,-0.7332,0.776
12.4800,-0.2449,0.0591,-0.7223,0.765
12.4800,-0.2524,0.0633,-0.7139,0.760
12.4800,-0.2598,0.0580,-0.7293,0.776
12.4810,-0.2482,0.0717,-0.7114,0.757
12.4810,-0.2438,0.0569,-0.6888,0.733
12.4810,-0.2347,0.0659,-0.6926,0.734
12.4810,-0.2588,0.0559,-0.6892,0.738
12.4810,-0.2449,0.0672,-0.6811,0.727
12.4810,-0.2334,0.0666,-0.6754,0.718
12.4810,-0.2362,0.0779,-0.6626,0.708
12.4820,-0.2295,0.0630,-0.6643,0.706
12.4820,-0.2418,0.0743,-0.6729,0.719
12.4820,-0.2256,0.0476,-0.6578,0.697
12.4820,-0.2427,0.0638,-0.6429,0.690
12.4820,-0.2383,0.0562,-0.6494,0.694
12.4820,-0.2292,0.0581,-0.6463,0.688
12.4820,-0.2250,0.0600,-0.6504,0.691
12.4820,-0.2303,0.0618,-0.6308,0.674
12.4830,-0.2260,0.0636,-0.6350,0.677
12.4830,-0.2265,0.0536,-0.6155,0.658
12.4830,-0.2128,0.0649,-0.6127,0.652
12.4830,-0.2015,0.0691,-0.6076,0.644
12.4830,-0.2094,0.0567,-0.5931,0.631
12.4830,-0.2100,0.0468,-0.6119,0.649
12.4830,-0.2201,0.0440,-0.5807,0.623
12.4830,-0.2111,0.0554,-0.5948,0.634
12.4840,-0.2023,0.0502,-0.5827,0.619
12.4840,-0.1983,0.0498,-0.5826,0.617
12.4840,-0.1990,0.0517,-0.5778,0.613
12.4840,-0.1927,0.0465,-0.5801,0.613
12.4840,-0.2006,0.0675,-0.5563,0.595
12.4840,-0.1894,0.0622,-0.5682,0.602
12.4840,-0.2045,0.0427,-0.5564,0.594
12.4840,-0.2099,0.0494,-0.5470,0.588
12.4850,-0.2058,0.0608,-0.5472,0.588
12.4850,-0.1922,0.0389,-0.5331,0.568
12.4850,-0.1811,0.0457,-0.5334,0.565
12.4850,-0.1962,0.0644,-0.5480,0.586
12.4850,-0.1756,0.0520,-0.5339,0.564
12.4850,-0.1884,0.0468,-0.5390,0.573
12.4850,-0.1749,0.0322,-0.5226,0.552
12.4850,-0.1829,0.0390,-0.5254,0.558
12.4860,-0.1766,0.0411,-0.5068,0.538
12.4860,-0.1752,0.0478,-0.5168,0.548
12.4860,-0.1975,0.0307,-0.4982,0.537
12.4860,-0.1840,0.0329,-0.5012,0.535
12.4860,-0.1801,0.0397,-0.4875,0.521
12.4860,-0.1787,0.0393,-0.4882,0.521
12.4860,-0.1725,0.0485,-0.4889,0.521
12.4860,-0.1663,0.0552,-0.4729,0.504
12.4880,-0.1626,0.0453,-0.4714,0.501
12.4890,-0.1684,0.0402,-0.4651,0.496
12.4890,-0.1670,0.0280,-0.4707,0.500
12.4890,-0.1680,0.0372,-0.4715,0.502
12.4890,-0.1499,0.0464,-0.4486,0.475
12.4890,-0.1677,0.0388,-0.4638,0.495
12.4900,-0.1735,0.0361,-0.4528,0.486
12.4900,-0.1626,0.0406,-0.4515,0.482
12.4900,-0.1541,0.0450,-0.4406,0.469
12.4900,-0.1576,0.0493,-0.4369,0.467
12.4900,-0.1421,0.0228,-0.4499,0.472
12.4900,-0.1694,0.0416,-0.4461,0.479
12.4900,-0.1609,0.0412,-0.4400,0.470
12.4910,-0.1477,0.0290,-0.4221,0.448
12.4910,-0.1488,0.0430,-0.4210,0.449
12.4910,-0.1547,0.0236,-0.4175,0.446
12.4910,-0.1368,0.0305,-0.4259,0.448
12.4910,-0.1357,0.0302,-0.4033,0.427
12.4910,-0.1536,0.0299,-0.4213,0.449
12.4920,-0.1475,0.0368,-0.4154,0.442
12.4920,-0.1273,0.0270,-0.4025,0.423
12.4920,-0.1477,0.0338,-0.3944,0.422
12.4920,-0.1394,0.0477,-0.3840,0.411
12.4920,-0.1335,0.0283,-0.3831,0.407
12.4920,-0.1490,0.0470,-0.3847,0.415
12.4920,-0.1382,0.0348,-0.3839,0.409
12.4930,-0.1323,0.0416,-0.3854,0.410
12.4930,-0.1360,0.0342,-0.3680,0.394
12.4930,-0.1278,0.0363,-0.3815,0.404
12.4930,-0.1220,0.0360,-0.3665,0.388
12.4930,-0.1399,0.0404,-0.3824,0.409
12.4940,-0.1317,0.0377,-0.3673,0.392
12.4940,-0.1282,0.0302,-0.3429,0.367
12.4940,-0.1248,0.0418,-0.3733,0.396
12.4940,-0.1285,0.0248,-0.3749,0.397
12.4940,-0.1250,0.0341,-0.3718,0.394
12.4940,-0.1288,0.0195,-0.3521,0.375
12.4950,-0.1253,0.0240,-0.3492,0.372
12.4950,-0.1053,0.0428,-0.3296,0.349
12.4950,-0.1139,0.0400,-0.3411,0.362
12.4950,-0.1106,0.0255,-0.3383,0.357
12.4950,-0.1287,0.0276,-0.3355,0.360
12.4950,-0.1276,0.0274,-0.3422,0.366
12.4960,-0.1146,0.0319,-0.3251,0.346
12.4960,-0.1232,0.0220,-0.3271,0.350
12.4960,-0.1103,0.0218,-0.3196,0.339
12.4960,-0.1094,0.0192,-0.3360,0.354
12.4960,-0.1014,0.0214,-0.3355,0.351
12.4960,-0.1100,0.0306,-0.3327,0.352
12.4960,-0.1162,0.0280,-0.3039,0.327
12.4970,-0.1129,0.0325,-0.3085,0.330
12.4970,-0.1002,0.0180,-0.3177,0.334
12.4970,-0.0875,0.0297,-0.3151,0.328
12.4970,-0.1081,0.0365,-0.3148,0.335
12.4970,-0.1096,0.0315,-0.3051,0.326
12.4970,-0.0850,0.0051,-0.2290,0.244
12.4980,2.6309,-0.4369,8.5706,8.976
12.4980,5.0674,0.1457,0.8897,5.147
12.4980,-1.7840,0.9856,-15.6820,15.814
12.4980,-4.5829,0.4247,-1.8934,4.977
12.4990,-3.1805,-0.8049,2.0886,3.889
12.4990,-1.8119,-1.0622,5.3121,5.712
12.4990,-0.4117,-0.7766,4.4611,4.547
12.4990,3.8120,0.1181,-2.0566,4.333
12.5000,1.6238,1.5815,-9.4701,9.738
12.5000,-1.8624,0.2223,3.3153,3.809
12.5000,-1.4379,-0.1078,4.7713,4.984
12.5000,0.0526,0.0205,-3.6400,3.640
12.5000,-0.2849,-0.4671,-0.8752,1.032
12.5010,-0.1422,0.1028,-0.3817,0.420
12.5010,-0.2153,-0.1171,-0.0274,0.247
12.5010,-0.2126,0.1131,-0.7417,0.780
12.5010,-0.3113,0.1888,-0.7741,0.855
12.5010,-0.4901,0.1564,-0.1277,0.530
12.5010,-0.0513,-0.1318,0.4988,0.518
12.5020,0.3914,-0.0551,-0.1637,0.428
12.5020,0.1551,0.0661,-0.1611,0.233
12.5020,-0.1959,-0.0004,-0.2661,0.330
12.5020,-0.2093,-0.0237,-0.3518,0.410
12.5020,-0.1400,0.0025,-0.3418,0.369
12.5030,-0.1504,0.0163,-0.2553,0.297
12.5030,-0.1151,0.0208,-0.2478,0.274
12.5030,-0.1294,-0.0030,-0.2977,0.325
12.5030,-0.1674,0.0186,-0.2949,0.340
12.5030,-0.1387,0.0113,-0.2970,0.328
12.5030,-0.1293,0.0064,-0.2870,0.315
12.5030,-0.1724,-0.0200,-0.4420,0.475
12.5040,-1.1368,0.2750,-1.5407,1.934
12.5040,5.6158,0.3255,-2.8581,6.310
12.5040,1.2412,0.4417,-4.6738,4.856
12.5040,1.4033,0.8970,-4.3462,4.654
12.5040,-3.3938,1.3683,0.2854,3.670
12.5040,-7.4665,1.0560,0.9707,7.603
12.5050,-6.5274,0.2780,-0.5578,6.557
12.5050,-4.3949,-0.0160,-0.2968,4.405
12.5050,-3.8058,0.5471,0.6331,3.897
12.5050,-5.0071,1.0404,0.6870,5.160
12.5050,-5.8333,0.6984,0.8293,5.933
12.5060,-5.8980,0.0852,1.1385,6.008
12.5060,-5.4990,-0.3015,1.0193,5.601
12.5060,-4.4864,-0.3009,0.1497,4.499
12.5060,-2.9101,-0.4624,-0.9413,3.093
12.5060,0.2382,-0.5136,-1.9761,2.056
12.5070,3.1928,-0.8413,-2.8115,4.337
12.5070,4.4720,-0.7607,-4.4849,6.379
12.5070,3.2909,0.0637,-4.8398,5.853
12.5070,-2.5268,0.0777,-7.0211,7.462
12.5080,-5.1223,-0.2382,-5.4931,7.515
12.5080,-4.9724,-0.4419,-1.8288,5.316
12.5080,-4.0858,-0.6278,0.7819,4.207
12.5080,-3.7315,0.0140,0.0580,3.732
12.5090,-4.7036,0.0781,-1.2532,4.868
12.5090,-6.6551,0.4110,-2.5463,7.137
12.5090,-9.1864,0.0264,-3.1823,9.722
12.5090,-11.5909,0.2452,-2.9744,11.969
12.5090,-12.7405,0.6135,-3.9366,13.349
12.5100,-11.6707,-1.9666,-6.6676,13.584
12.5100,-8.2009,-6.6444,-9.2236,14.017
12.5100,-4.2738,-8.9474,-9.8359,13.967
12.5100,-1.9640,-9.2419,-9.2224,13.203
12.5110,-1.6141,-8.9921,-7.8167,12.023
12.5110,-1.8333,-7.7446,-7.0600,10.639
12.5110,-2.5947,-5.6775,-7.1718,9.508
12.5110,-4.0981,-2.9636,-7.1952,8.795
12.5120,-5.1953,-1.0000,-6.4371,8.332
12.5120,-5.3715,-0.2434,-5.3907,7.614
12.5120,-5.8167,0.4816,-4.6502,7.463
12.5120,-7.1022,1.4043,-4.2350,8.387
12.5120,-8.1009,2.3279,-3.9754,9.319
12.5130,-8.6298,2.5733,-2.9170,9.466
12.5130,-9.3840,2.7843,-1.2556,9.869
12.5130,-11.1031,2.8791,-0.0811,11.471
12.5130,-13.4549,3.5364,-0.5856,13.924
12.5140,-15.4829,3.7347,-0.8799,15.951
12.5140,-16.8816,4.0160,-2.4452,17.524
12.5140,-17.7572,3.4998,-4.1426,18.567
12.5140,-17.7457,2.5070,-5.4680,18.738
12.5150,-17.8336,1.6421,-7.7018,19.495
12.5150,-17.6844,0.1673,-12.1909,21.480
12.5150,-13.1955,-2.4950,-15.8053,20.740
12.5150,-7.0874,-5.4936,-16.6749,18.933
12.5160,-2.6610,-7.5557,-16.6183,18.448
12.5160,-0.1031,-7.7676,-15.5286,17.363
12.5160,1.0247,-6.0615,-13.9978,15.288
12.5160,0.4511,-2.9202,-12.3613,12.710
12.5160,-1.8055,0.6719,-9.7496,9.938
12.5170,-4.8773,3.5097,-5.9614,8.464
12.5170,-7.8138,5.1868,-2.6984,9.759
12.5170,-10.6451,6.1831,-0.7049,12.331
12.5180,-13.0296,6.2773,0.6748,14.479
12.5180,-14.9683,5.5781,1.4749,16.042
12.5180,-16.5764,4.5916,2.0597,17.323
12.5180,-17.3178,3.6122,2.6858,17.893
12.5190,-16.9446,2.7157,2.4834,17.340
12.5190,-15.6314,1.8581,1.3834,15.802
12.5190,-13.7810,1.2712,0.0080,13.839
12.5190,-11.4718,0.8252,-1.1243,11.556
12.5190,-9.0207,0.5304,-2.1011,9.277
12.5200,-6.5009,0.4748,-2.7972,7.093
12.5200,-3.8168,0.4304,-3.0793,4.923
12.5200,-1.4697,0.2553,-3.1249,3.463
12.5200,0.2884,0.2359,-3.1620,3.184
12.5200,1.5483,0.5445,-3.2306,3.624
12.5210,2.5256,0.9032,-2.8952,3.947
12.5210,3.0976,1.0752,-2.1073,3.898
12.5210,2.5512,0.9170,-1.3089,3.010
12.5210,0.9654,0.8521,-1.1583,1.732
12.5210,-1.0091,1.1802,-1.5521,2.196
12.5210,-2.5608,1.6440,-1.7012,3.486
12.5220,-3.3225,1.6966,-1.5240,4.030
12.5220,-3.5879,1.2461,-1.1018,3.955
12.5220,-3.4592,0.4430,-1.0908,3.654
12.5220,-3.1686,-0.4200,-1.4236,3.499
12.5220,-2.7381,-1.1195,-1.7652,3.445
12.5230,-2.1818,-1.5931,-2.2504,3.516
12.5230,-1.5431,-1.7768,-2.8462,3.693
12.5230,-1.0431,-1.8593,-3.1647,3.816
12.5230,-0.8386,-1.8676,-3.4111,3.978
12.5230,-0.5215,-1.8010,-3.7035,4.151
12.5230,0.2660,-1.7564,-3.9492,4.330
12.5240,1.1330,-1.7773,-4.1025,4.612
12.5240,1.6603,-1.6896,-4.1926,4.815
12.5240,2.1009,-1.4299,-4.1834,4.895
12.5240,2.5415,-0.8799,-4.2149,5.000
12.5240,2.1235,-0.2368,-3.8704,4.421
12.5250,1.0355,0.3355,-3.2638,3.441
12.5250,0.0360,0.8206,-2.7643,2.884
12.5250,-0.3856,0.9415,-2.2615,2.480
12.5250,-0.5827,0.7668,-1.8594,2.094
12.5250,-0.9455,0.4030,-1.5442,1.855
12.5250,-1.3877,-0.0562,-1.5407,2.074
12.5250,-1.5929,-0.5695,-1.7190,2.412
12.5260,-1.6130,-0.9819,-1.9643,2.725
12.5260,-1.4234,-1.4601,-2.0318,2.879
12.5260,-1.1736,-1.7662,-2.1169,2.996
12.5260,-1.0791,-1.9492,-2.3397,3.231
12.5260,-1.0080,-2.0191,-2.6140,3.453
12.5270,-0.8123,-2.0572,-2.6791,3.474
12.5270,-0.5383,-2.0402,-2.6419,3.381
12.5270,-0.3088,-1.8448,-2.6115,3.212
12.5270,-0.0929,-1.3869,-2.8273,3.150
12.5280,0.2783,-0.7674,-3.1583,3.262
12.5280,0.6610,-0.2069,-3.2044,3.278
12.5280,0.8142,0.2208,-2.9490,3.067
12.5280,0.8278,0.5950,-2.5310,2.729
12.5280,0.7300,0.8741,-2.1537,2.436
12.5290,0.5806,1.0053,-1.9293,2.252
12.5290,0.4434,1.0253,-1.8083,2.126
12.5290,0.2911,0.9478,-1.7469,2.009
12.5290,0.0812,0.7231,-1.6541,1.807
12.5290,-0.1719,0.4448,-1.6664,1.733
12.5290,-0.3487,0.1231,-1.6908,1.731
12.5290,-0.4648,-0.2074,-1.7281,1.802
12.5300,-0.6449,-0.5399,-1.7711,1.961
12.5300,-0.7134,-0.8419,-1.8639,2.166
12.5300,-0.5555,-1.0706,-2.0014,2.337
12.5300,-0.2961,-1.2614,-2.1359,2.498
12.5300,-0.1361,-1.4760,-2.1002,2.571
12.5300,-0.0633,-1.5643,-2.0735,2.598
12.5310,-0.0168,-1.3886,-2.0695,2.492
12.5310,-0.0415,-0.9740,-2.1047,2.320
12.5310,-0.0494,-0.5435,-2.0357,2.108
12.5310,-0.0411,-0.1628,-1.9058,1.913
12.5310,0.0764,0.3084,-1.9516,1.977
12.5310,0.2425,0.7665,-2.0035,2.159
12.5320,0.5008,1.1476,-1.8758,2.255
12.5320,0.6612,1.4470,-1.7531,2.367
12.5320,0.7904,1.6623,-1.7694,2.553
12.5320,0.8499,1.8304,-1.8505,2.738
12.5320,0.8541,1.9531,-1.8377,2.814
12.5330,0.8552,2.0470,-1.9887,2.979
12.5330,0.9378,2.0817,-2.1763,3.154
12.5330,1.0026,1.9880,-2.2760,3.184
12.5330,1.0536,1.8010,-2.3074,3.111
12.5330,1.0768,1.6169,-2.2992,3.010
12.5340,1.1084,1.5050,-2.3374,2.993
12.5340,1.1004,1.5252,-2.3767,3.031
12.5340,0.9878,1.5437,-2.3359,2.969
12.5340,0.8757,1.5817,-2.3204,2.942
12.5350,0.7954,1.6485,-2.3444,2.974
12.5350,0.6288,1.7971,-2.3460,3.021
12.5350,0.5376,1.9758,-2.2674,3.055
12.5350,0.5779,2.1182,-2.2311,3.130
12.5350,0.6399,2.2355,-2.2654,3.246
12.5360,0.7439,2.2981,-2.2556,3.305
12.5360,0.8755,2.2569,-2.3330,3.362
12.5360,0.9427,2.1932,-2.3565,3.354
12.5360,1.1088,2.1141,-2.3595,3.356
12.5370,1.2514,2.0662,-2.3899,3.398
12.5370,1.2755,1.9845,-2.5122,3.446
12.5370,1.3314,1.8841,-2.6476,3.512
12.5370,1.2169,1.7489,-2.5716,3.340
12.5380,0.9709,1.6670,-2.4588,3.125
12.5380,0.7521,1.6810,-2.4862,3.094
12.5380,0.6168,1.7437,-2.5555,3.155
12.5380,0.5980,1.7069,-2.6192,3.183
12.5380,0.5444,1.5471,-2.6222,3.093
12.5390,0.4199,1.3480,-2.6125,2.970
12.5390,0.2462,1.1907,-2.6546,2.920
12.5390,0.1170,1.1252,-2.7006,2.928
12.5390,0.0822,1.0146,-2.6645,2.852
12.5390,0.1007,0.8300,-2.6374,2.767
12.5400,0.1774,0.5551,-2.6717,2.735
12.5400,0.3227,0.2897,-2.7292,2.763
12.5400,0.4678,0.0717,-2.8097,2.849
12.5400,0.5553,0.0012,-2.9087,2.961
12.5400,0.5516,0.0733,-2.9926,3.044
12.5400,0.5736,0.2324,-3.0162,3.079
12.5410,0.6661,0.4070,-3.0321,3.131
12.5410,0.7925,0.4673,-3.0694,3.204
12.5410,1.0674,0.4825,-3.1614,3.371
12.5410,1.4167,0.3978,-3.1816,3.505
12.5410,1.6365,0.3469,-3.1444,3.562
12.5420,1.6089,0.4203,-3.0692,3.491
12.5420,1.3149,0.5601,-2.7866,3.132
12.5420,0.9708,0.8105,-2.6243,2.913
12.5420,0.7515,1.0659,-2.5705,2.882
12.5420,0.7974,1.2355,-2.4696,2.874
12.5420,0.8533,1.3052,-2.3889,2.853
12.5430,0.7933,1.2348,-2.2662,2.700
12.5430,0.6710,1.1144,-2.2662,2.613
12.5430,0.6640,1.0046,-2.2957,2.592
12.5430,0.7634,0.9058,-2.3402,2.623
12.5430,0.8737,0.8496,-2.3566,2.653
12.5430,0.9463,0.8490,-2.3617,2.682
12.5440,0.9346,0.9083,-2.3839,2.717
12.5440,0.8489,1.0206,-2.4303,2.769
12.5440,0.8170,1.1285,-2.4221,2.794
12.5440,0.8356,1.1726,-2.3806,2.782
12.5440,0.9498,1.1647,-2.4613,2.884
12.5440,1.0346,1.2011,-2.4847,2.947
12.5450,0.9728,1.2273,-2.4029,2.868
12.5450,0.8939,1.2815,-2.3212,2.798
12.5450,0.8091,1.3808,-2.3066,2.807
12.5450,0.6053,1.4657,-2.2154,2.724
12.5450,0.4594,1.5337,-2.1243,2.660
12.5460,0.4180,1.5803,-2.0021,2.585
12.5460,0.3874,1.5795,-1.7915,2.420
12.5460,0.3215,1.5360,-1.5786,2.226
12.5460,0.2730,1.5284,-1.3946,2.087
12.5460,0.3458,1.5420,-1.2634,2.023
12.5460,0.4378,1.5597,-1.1777,2.003
12.5470,0.5421,1.6721,-1.0924,2.070
12.5470,0.5971,1.7929,-1.0192,2.147
12.5470,0.5338,1.9390,-0.9225,2.213
12.5470,0.3622,2.1028,-0.8427,2.294
12.5470,0.1519,2.2485,-0.7562,2.377
12.5470,0.0136,2.3762,-0.6629,2.467
12.5480,-0.0094,2.4860,-0.5605,2.548
12.5480,0.0661,2.5805,-0.4488,2.620
12.5480,0.1370,2.7294,-0.5143,2.781
12.5480,0.1308,2.9284,-0.5391,2.980
12.5480,-0.0142,3.0692,-0.4775,3.106
12.5480,-0.1026,3.1032,-0.3655,3.126
12.5490,-0.0522,3.0737,-0.2727,3.086
12.5490,0.0440,3.0407,-0.3351,3.059
12.5490,0.0664,2.9302,-0.4522,2.966
12.5490,0.0607,2.7367,-0.5805,2.798
12.5490,0.0763,2.5518,-0.6123,2.625
12.5490,0.0584,2.3994,-0.6385,2.484
12.5500,-0.0182,2.4024,-0.6163,2.480
12.5500,-0.1554,2.4707,-0.5170,2.529
12.5500,-0.2964,2.4965,-0.4959,2.562
12.5500,-0.3334,2.4721,-0.5101,2.546
12.5500,-0.2420,2.3283,-0.5070,2.395
12.5500,-0.0958,2.1434,-0.5178,2.207
12.5510,0.0365,1.9361,-0.6047,2.029
12.5510,0.1247,1.7205,-0.6864,1.857
12.5510,0.1509,1.4653,-0.7415,1.649
12.5510,0.1470,1.2730,-0.8107,1.516
12.5510,0.1112,1.1102,-0.8866,1.425
12.5510,0.1656,1.0221,-1.0339,1.463
12.5520,0.2161,1.0213,-1.1731,1.570
12.5520,0.1123,1.0481,-1.2134,1.607
12.5520,-0.1584,1.0788,-1.1452,1.581
12.5520,-0.4206,1.1104,-1.1168,1.630
12.5520,-0.5395,1.1593,-1.1259,1.704
12.5520,-0.6547,1.1631,-1.1078,1.735
12.5520,-0.9268,1.0122,-1.0600,1.734
12.5530,-1.1181,0.7113,-0.9397,1.625
12.5530,-1.3180,0.3629,-0.7590,1.564
12.5530,-1.5154,0.1098,-0.5133,1.604
12.5530,-1.6118,-0.0245,-0.2914,1.638
12.5530,-1.6133,-0.0648,-0.1413,1.621
12.5530,-1.5660,-0.1022,-0.0462,1.570
12.5540,-1.4458,-0.1872,-0.0207,1.458
12.5540,-1.2692,-0.2888,-0.0312,1.302
12.5540,-1.1391,-0.4070,-0.0657,1.211
12.5540,-1.0386,-0.5227,-0.0718,1.165
12.5540,-1.0288,-0.6312,-0.0852,1.210
12.5540,-1.1501,-0.7012,-0.0532,1.348
12.5550,-1.2762,-0.8857,-0.0023,1.553
12.5550,-1.3949,-1.1248,0.1010,1.795
12.5550,-1.4647,-1.3063,0.1535,1.969
12.5550,-1.4879,-1.3730,0.2054,2.035
12.5550,-1.4926,-1.2533,0.2182,1.961
12.5550,-1.6960,-1.0239,0.3922,2.020
12.5550,-1.9231,-0.7761,0.7341,2.200
12.5560,-2.0177,-0.5323,0.8875,2.268
12.5560,-1.9533,-0.3237,0.9744,2.207
12.5560,-1.7616,-0.2265,1.0808,2.079
12.5560,-1.5350,-0.2404,1.0709,1.887
12.5560,-1.3228,-0.3385,0.9473,1.662
12.5560,-1.0955,-0.5316,0.8136,1.464
12.5570,-0.8785,-0.7281,0.7013,1.339
12.5570,-0.7318,-0.8857,0.5319,1.266
12.5570,-0.6349,-0.9488,0.3921,1.207
12.5570,-0.6065,-0.9738,0.2440,1.173
12.5570,-0.6031,-0.9553,0.0738,1.132
12.5570,-0.5838,-0.9735,-0.1160,1.141
12.5570,-0.5382,-0.9947,-0.2173,1.152
12.5580,-0.5023,-1.0423,-0.3089,1.198
12.5580,-0.4137,-1.1685,-0.3716,1.294
12.5580,-0.2365,-1.2918,-0.4052,1.374
12.5580,-0.0593,-1.4028,-0.4027,1.461
12.5580,-0.0400,-1.5160,-0.4118,1.571
12.5580,-0.1404,-1.6009,-0.3753,1.650
12.5590,-0.3103,-1.7180,-0.3366,1.778
12.5590,-0.3506,-1.9129,-0.2667,1.963
12.5590,-0.2601,-2.0879,-0.1110,2.107
12.5590,-0.1428,-2.2512,-0.0566,2.256
12.5590,0.0738,-2.3694,-0.0531,2.371
12.5590,0.2913,-2.4093,-0.0715,2.428
12.5600,0.3921,-2.3517,0.0098,2.384
12.5600,0.3795,-2.1779,0.1169,2.214
12.5600,0.3232,-1.4706,-0.2019,1.519
12.5600,0.1881,-0.3717,-0.6066,0.736
12.5600,1.0106,-1.5025,1.0893,2.113
12.5600,0.7209,-1.4083,0.1227,1.587
12.5600,0.3139,-0.8085,-0.4194,0.963
12.5610,0.5064,-0.6699,-0.1916,0.861
12.5610,0.8123,-0.7773,-0.5036,1.232
12.5610,1.0706,-0.9907,-0.9530,1.742
12.5610,1.0424,-1.0792,-1.2234,1.936
12.5610,0.6185,-0.8314,-1.5629,1.875
12.5610,0.0621,-0.5029,-1.4479,1.534
12.5610,-0.2931,-0.3521,-1.0490,1.145
12.5620,-0.5538,-0.2692,-0.7284,0.954
12.5620,-0.7303,-0.1997,-0.5198,0.918
12.5620,-0.9000,-0.0958,-0.4357,1.005
12.5620,-1.1369,0.0809,-0.4614,1.230
12.5620,-1.1869,0.2417,-0.2860,1.245
12.5620,-1.1516,0.5497,-0.3267,1.317
12.5620,-1.0544,0.7511,-0.4229,1.362
12.5630,-0.8512,0.5974,-0.3087,1.085
12.5630,-0.1248,0.0623,-0.1402,0.198
12.5630,0.3409,-0.2038,-0.4312,0.586
12.5630,0.5264,-0.1330,-0.7436,0.921
12.5630,0.6791,-0.0930,-0.8155,1.065
12.5630,0.7416,0.1035,-0.8609,1.141
12.5630,0.9396,0.0232,-0.4777,1.054
12.5630,1.0985,-0.0294,-0.2864,1.136
12.5640,1.1654,0.1687,-0.3214,1.221
12.5640,1.1005,0.4510,-0.1843,1.203
12.5640,0.9582,0.6374,0.1068,1.156
12.5640,0.7384,0.8129,0.2928,1.137
12.5640,0.4583,0.9513,0.3861,1.124
12.5640,-0.0521,1.0438,0.3780,1.111
12.5640,-0.5562,1.0685,0.2823,1.237
12.5650,-1.1089,1.1899,0.2420,1.644
12.5650,-1.6049,0.9534,0.7039,1.995
12.5650,-2.0096,0.6649,1.0178,2.349
12.5650,-2.3587,0.5437,0.9683,2.607
12.5650,-2.4343,0.3030,0.9886,2.645
12.5650,-2.3630,0.0488,0.9381,2.543
12.5660,-2.1759,-0.2303,0.8126,2.334
12.5660,-1.8702,-0.4542,0.7519,2.066
12.5660,-1.6467,-0.5744,0.5417,1.826
12.5660,-1.4708,-0.6688,0.3798,1.660
12.5660,-1.1742,-0.7922,0.3868,1.468
12.5660,-0.7256,-0.8795,0.3362,1.189
12.5660,-0.2448,-0.7721,0.1904,0.832
12.5670,-0.0509,-0.5126,0.0065,0.515
12.5670,-0.1576,-0.2175,0.0412,0.272
12.5670,-0.3776,0.0269,0.2442,0.450
12.5670,-0.4972,0.2604,0.3169,0.645
12.5670,-0.5256,0.4926,0.4034,0.826
12.5670,-0.4871,0.6318,0.5240,0.954
12.5670,-0.4534,0.6256,0.6191,0.990
12.5670,-0.3599,0.5478,0.6310,0.910
12.5680,-0.3052,0.4579,0.7241,0.909
12.5680,-0.3245,0.4301,0.8127,0.975
12.5680,-0.4175,0.4665,0.8849,1.084
12.5680,-0.4930,0.4518,0.9192,1.137
12.5680,-0.5342,0.3525,0.9202,1.121
12.5680,-0.4914,0.1493,0.9423,1.073
12.5680,-0.4152,-0.0786,0.9422,1.033
12.5680,-0.3274,-0.2547,0.9029,0.994
12.5690,-0.2950,-0.3720,0.8145,0.943
12.5690,-0.3708,-0.5095,0.7224,0.959
12.5690,-0.4109,-0.6629,0.6117,0.991
12.5690,-0.3581,-0.7940,0.5995,1.057
12.5690,-0.2819,-0.8718,0.6233,1.108
12.5690,-0.3093,-0.8366,0.5869,1.068
12.5690,-0.5475,-0.6835,0.4457,0.983
12.5700,-0.7539,-0.4273,0.4585,0.980
12.5700,-0.7564,-0.2046,0.7470,1.083
12.5700,-0.6561,0.0107,1.0110,1.205
12.5700,-0.6354,0.1946,1.1230,1.305
12.5700,-0.6081,0.3472,1.1932,1.384
12.5700,-0.5166,0.4564,1.2147,1.397
12.5700,-0.3702,0.4915,1.1784,1.329
12.5700,-0.2600,0.4743,1.0991,1.225
12.5710,-0.1307,0.4147,0.9940,1.085
12.5710,-0.0039,0.2655,0.8901,0.929
12.5710,0.1611,0.0634,0.7787,0.798
12.5710,0.2968,-0.1786,0.6245,0.714
12.5710,0.4459,-0.4883,0.2631,0.712
12.5710,0.4240,-0.9474,0.0738,1.041
12.5710,0.1146,-1.2438,-0.3056,1.286
12.5720,-0.1377,-1.6012,-0.7636,1.779
12.5720,-0.4071,-1.7414,-0.8812,1.994
12.5720,-0.6000,-1.6512,-0.7839,1.924
12.5720,-0.7259,-1.4048,-0.5094,1.661
12.5720,-0.7297,-1.0253,-0.2788,1.289
12.5720,-0.6378,-0.5972,-0.1260,0.883
12.5720,-0.5513,-0.2788,-0.0183,0.618
12.5720,-0.4438,-0.1923,0.0489,0.486
12.5730,-0.2340,-0.2000,0.0315,0.309
12.5730,0.0066,-0.2794,-0.0450,0.283
12.5730,0.1562,-0.3606,-0.1324,0.415
12.5730,0.1958,-0.4507,-0.1873,0.526
12.5730,0.1065,-0.5164,-0.2722,0.593
12.5730,-0.0802,-0.5441,-0.3706,0.663
12.5730,-0.1945,-0.6064,-0.4404,0.774
12.5730,-0.2532,-0.6775,-0.4319,0.842
12.5740,-0.2801,-0.7628,-0.4125,0.911
12.5740,-0.2804,-0.8008,-0.4167,0.945
12.5740,-0.3092,-0.7965,-0.3734,0.932
12.5740,-0.3737,-0.7918,-0.3719,0.951
12.5740,-0.3753,-0.7899,-0.3460,0.940
12.5740,-0.2372,-0.7800,-0.3034,0.870
12.5740,-0.1362,-0.6386,-0.2211,0.689
12.5740,-0.0962,-0.4788,-0.1353,0.507
12.5750,-0.1672,-0.2552,-0.0203,0.306
12.5750,-0.2682,0.0224,0.1259,0.297
12.5750,-0.3993,0.1892,0.2720,0.519
12.5750,-0.5514,0.1691,0.4227,0.715
12.5750,-0.6671,0.1016,0.5280,0.857
12.5750,-0.8043,-0.0008,0.5550,0.977
12.5760,-0.9250,-0.2515,0.4590,1.063
12.5760,-1.1212,-0.5396,0.2638,1.272
12.5760,-1.4029,-0.7211,0.1963,1.590
12.5760,-1.6073,-0.7389,0.1660,1.777
12.5760,-1.5649,-0.6817,0.1816,1.717
12.5760,-1.3544,-0.6165,0.2131,1.503
12.5770,-1.1458,-0.4976,0.2366,1.271
12.5770,-1.0534,-0.3847,0.2097,1.141
12.5770,-1.0077,-0.2935,0.1915,1.067
12.5770,-0.9082,-0.2630,0.1857,0.964
12.5770,-0.8792,-0.1689,0.2522,0.930
12.5770,-0.9182,-0.0564,0.2309,0.948
12.5770,-0.9723,-0.0292,0.1884,0.991
12.5780,-0.9937,-0.1175,0.1230,1.008
12.5780,-0.9659,-0.1996,0.0389,0.987
12.5780,-0.8648,-0.1710,-0.1001,0.887
12.5780,-0.7596,-0.1112,-0.2631,0.812
12.5780,-0.5546,-0.2211,-0.3621,0.698
12.5780,-0.2019,-0.2449,-0.7958,0.857
12.5780,0.2944,-0.3133,-1.3651,1.431
12.5790,0.5287,-0.7881,-0.4755,1.062
12.5790,0.2652,-0.9450,0.0449,0.983
12.5790,0.1683,-0.5726,-0.3531,0.693
12.5790,0.4915,-0.1092,-0.6355,0.811
12.5790,0.7147,0.0720,-0.4997,0.875
12.5790,0.7448,0.0687,-0.3175,0.813
12.5790,0.5936,-0.0072,-0.0094,0.594
12.5800,0.5601,-0.1137,0.1647,0.595
12.5800,0.5849,-0.2541,0.1496,0.655
12.5800,0.7210,-0.3972,0.0273,0.824
12.5800,0.7861,-0.4537,-0.1921,0.928
12.5800,0.7346,-0.4327,-0.2905,0.901
12.5800,0.6194,-0.4200,-0.2767,0.798
12.5800,0.5576,-0.5299,-0.3156,0.831
12.5800,0.5773,-0.7594,-0.5552,1.104
12.5810,0.4459,-1.0480,-0.7539,1.366
12.5810,0.2755,-1.1297,-0.6106,1.313
12.5810,0.0275,-1.0814,-0.3053,1.124
12.5810,-0.0440,-0.8938,-0.2632,0.933
12.5810,0.0126,-0.6792,-0.2283,0.717
12.5810,-0.0518,-0.4947,-0.0238,0.498
12.5810,0.2048,-0.3737,0.0364,0.428
12.5820,0.0984,-0.2085,0.0005,0.231
12.5820,-0.2358,0.0194,-0.0261,0.238
12.5820,-0.5419,0.1288,0.0152,0.557
12.5820,-0.6176,0.0809,0.0439,0.624
12.5820,-0.5734,-0.1314,0.2147,0.626
12.5820,-0.6737,-0.4240,0.3945,0.888
12.5820,-0.8189,-0.6266,0.2931,1.072
12.5820,-0.8855,-0.7554,0.1782,1.177
12.5830,-1.1058,-0.8410,0.2845,1.418
12.5830,-1.4079,-0.8689,0.6311,1.771
12.5830,-1.7570,-0.6362,0.7848,2.027
12.5830,-1.7636,-0.3770,0.8800,2.007
12.5830,-1.6492,-0.4083,1.0573,2.001
12.5830,-1.5480,-0.6319,1.2039,2.060
12.5840,-1.4922,-0.7280,1.0935,1.988
12.5840,-1.4253,-0.5858,0.9131,1.791
12.5840,-1.4094,-0.5664,0.7607,1.699
12.5840,-1.1948,-0.6360,0.7398,1.543
12.5840,-1.1152,-0.7108,0.6354,1.467
12.5840,-1.1705,-0.8242,0.4378,1.497
12.5850,-1.1045,-0.9450,0.1409,1.460
12.5850,-0.8575,-1.0611,-0.0351,1.365
12.5850,-0.6697,-1.0907,-0.0024,1.280
12.5850,-0.7846,-0.8880,-0.0598,1.186
12.5850,-0.9169,-0.6754,0.0237,1.139
12.5850,-0.7673,-0.5293,0.2254,0.959
12.5850,-0.7260,-0.5230,0.3901,0.976
12.5850,-0.7863,-0.4915,0.4791,1.044
12.5860,-0.9504,-0.4754,0.4227,1.144
12.5860,-0.9837,-0.4923,0.3783,1.163
12.5860,-0.8457,-0.4375,0.2561,0.986
12.5860,-0.7404,-0.3232,0.1602,0.824
12.5860,-0.8835,-0.3596,0.1348,0.963
12.5860,-0.8536,-0.4324,0.1294,0.966
12.5860,-0.6780,-0.4924,0.0468,0.839
12.5870,-0.4471,-0.3868,-0.0908,0.598
12.5870,-0.5025,-0.2428,-0.2594,0.615
12.5870,-0.9765,0.0514,-0.4488,1.076
12.5870,-1.2813,0.3108,-0.5546,1.430
12.5870,-1.1835,0.2325,-0.4979,1.305
12.5870,-0.9880,0.1356,-0.6064,1.167
12.5870,-0.6968,0.1362,-0.6651,0.973
12.5880,-0.6107,0.0417,-0.5630,0.832
12.5880,-0.6522,0.0121,-0.5765,0.871
12.5880,-0.6510,0.0589,-0.6242,0.904
12.5880,-0.4954,0.0747,-0.5203,0.722
12.5880,-0.5247,0.1142,-0.4607,0.707
12.5880,-0.7431,0.2604,-0.3745,0.872
12.5880,-1.0036,0.2496,-0.1877,1.051
12.5890,-1.2050,0.1574,-0.0130,1.215
12.5890,-1.3543,0.0385,0.0153,1.355
12.5890,-1.5658,0.0218,-0.1069,1.570
12.5890,-1.9640,0.0714,-0.1551,1.971
12.5890,-2.2051,0.1568,-0.0404,2.211
12.5890,-2.0339,0.1996,0.1011,2.046
12.5900,-1.5507,0.2130,0.1088,1.569
12.5900,-1.3482,0.1482,0.2357,1.377
12.5900,-1.5064,0.1868,0.3919,1.568
12.5900,-1.2535,0.2559,0.5257,1.383
12.5900,-1.0034,0.2096,0.4796,1.132
12.5900,-1.1168,0.1605,0.5025,1.235
12.5900,-1.2921,0.0702,0.6134,1.432
12.5910,-1.3788,-0.0520,0.6873,1.541
12.5910,-1.5295,-0.1421,0.6546,1.670
12.5910,-1.4455,-0.2269,0.5767,1.573
12.5910,-1.3036,-0.4067,0.5022,1.455
12.5910,-1.1845,-0.6074,0.4653,1.410
12.5910,-1.0287,-0.8433,0.1407,1.338
12.5910,-0.6508,-0.9129,-0.1941,1.138
12.5920,-0.3688,-0.9922,-0.1296,1.066
12.5920,-0.5812,-0.9900,-0.1077,1.153
12.5920,-0.9203,-0.8443,0.0671,1.251
12.5920,-0.9873,-0.6895,-0.1049,1.209
12.5920,-0.7358,-0.6085,-0.3462,1.016
12.5920,-0.3770,-0.6205,-0.5872,0.934
12.5920,-0.2487,-0.6813,-0.4860,0.873
12.5930,-0.3319,-0.6901,-0.2221,0.797
12.5930,-0.6806,-0.4923,-0.2455,0.875
12.5930,-0.8917,-0.2043,-0.2624,0.952
12.5930,-1.2949,0.1318,-0.4102,1.365
12.5930,-1.1208,0.3049,-0.9004,1.470
12.5930,-0.8712,0.2919,-0.8855,1.276
12.5930,-0.4472,0.1475,-0.6142,0.774
12.5930,-0.3761,0.1078,-0.9204,1.000
12.5940,-0.1596,0.0245,-1.1241,1.136
12.5940,-0.0918,0.0583,-1.1604,1.166
12.5940,-0.1809,0.1200,-1.5953,1.610
12.5940,-0.4946,0.0470,-1.4899,1.571
12.5940,-0.4119,-0.0338,-1.2493,1.316
12.5940,-0.1659,-0.1386,-0.8858,0.912
12.5940,0.0012,-0.2575,-0.5818,0.636
12.5950,0.1597,-0.3299,-0.2850,0.464
12.5950,0.4857,-0.3272,0.1927,0.617
12.5950,0.8245,-0.2825,0.6487,1.086
12.5950,0.7706,-0.1334,0.6372,1.009
12.5950,0.5379,0.1437,0.5153,0.759
12.5950,0.3878,0.4264,0.4151,0.710
12.5950,0.4572,0.6209,0.3343,0.840
12.5950,0.6076,0.8104,0.2942,1.055
12.5960,0.6118,1.3484,-0.1740,1.491
12.5960,0.6855,1.7747,-0.2669,1.921
12.5960,1.1430,1.7825,0.4885,2.173
12.5960,1.0746,1.9809,1.2237,2.564
12.5960,2.0256,3.1948,2.2103,4.381
12.5960,1.8999,3.6397,2.7270,4.929
12.5970,1.2951,3.7507,2.8008,4.857
12.5970,0.8615,3.4046,2.8313,4.511
12.5970,0.6531,2.5297,2.8101,3.837
12.5970,0.4052,2.0425,2.9035,3.573
12.5970,0.2314,1.6448,2.5833,3.071
12.5980,0.2293,1.2256,2.0642,2.412
12.5980,0.3306,0.7039,1.4704,1.663
12.5980,0.5177,0.0465,0.9087,1.047
12.5980,0.6917,-0.7131,0.2898,1.035
12.5980,0.9311,-1.3747,-0.4971,1.733
12.5980,1.1473,-1.8430,-1.2589,2.510
12.5990,1.2782,-2.2190,-1.9628,3.227
12.5990,1.3313,-2.4870,-2.3920,3.698
12.5990,1.2369,-2.5786,-2.4268,3.751
12.5990,1.0395,-2.4504,-2.1021,3.392
12.5990,0.8670,-2.1528,-1.6688,2.858
12.5990,0.7779,-1.8108,-1.2747,2.347
12.6000,0.7982,-1.4177,-1.0113,1.916
12.6000,0.8810,-0.9291,-0.9879,1.617
12.6000,0.9044,-0.5350,-0.9101,1.390
12.6000,0.9236,-0.2532,-0.7329,1.206
12.6000,1.0337,-0.0467,-0.5150,1.156
12.6000,1.2135,0.1056,-0.2152,1.237
12.6010,1.4128,0.2533,0.2281,1.453
12.6010,1.4394,0.5318,0.7051,1.689
12.6010,1.4909,0.6605,0.8317,1.830
12.6010,1.3877,0.7508,0.7791,1.760
12.6010,1.0970,0.7738,0.5117,1.437
12.6010,0.6227,0.6858,0.0192,0.927
12.6010,0.0459,0.4006,-0.2777,0.490
12.6020,-0.6199,-0.0110,-0.4331,0.756
12.6020,-1.3527,-0.4469,-0.4978,1.509
12.6020,-2.1093,-0.8795,-0.4731,2.334
12.6020,-2.6520,-1.1965,-0.4850,2.950
12.6020,-3.0660,-1.4326,-0.4343,3.412
12.6020,-3.4485,-1.6624,-0.2739,3.838
12.6030,-3.6130,-2.2215,0.0945,4.242
12.6030,-3.5800,-2.2587,0.1725,4.236
12.6030,-3.5294,-1.6406,0.1462,3.895
12.6030,-3.4989,-0.8535,0.2415,3.610
12.6030,-3.3482,-0.3136,0.2789,3.374
12.6030,-3.1124,-0.0551,0.3000,3.127
12.6040,-2.8482,0.0154,0.2941,2.863
12.6040,-2.5212,-0.1074,0.2831,2.539
12.6040,-2.1667,-0.2504,-0.0837,2.183
12.6040,-1.9402,-0.3651,-2.0755,2.864
12.6040,-2.2139,-2.0418,4.6295,5.523
12.6050,-0.9056,-1.9841,4.6596,5.145
12.6050,0.2922,-1.9527,0.1843,1.983
12.6050,0.5142,-1.8843,2.0998,2.868
12.6050,0.7829,-1.7438,4.9820,5.336
12.6050,0.9654,-1.0640,5.5224,5.706
12.6050,1.0600,-0.5625,5.8464,5.968
12.6060,1.3200,-0.9192,6.5000,6.696
12.6060,1.7828,-1.7153,5.5361,6.064
12.6060,2.0115,-2.1606,4.4077,5.305
12.6070,2.0220,-2.1539,3.3269,4.449
12.6070,1.6528,-1.7933,2.4844,3.481
12.6070,1.2889,-1.5441,1.8233,2.715
12.6070,0.6658,-2.4444,-0.3972,2.564
12.6070,-1.1400,-3.0749,-3.0022,4.446
12.6070,-0.2257,-2.6451,-2.1059,3.389
12.6080,0.4771,-2.7115,-2.2767,3.573
12.6080,0.1646,-2.7845,-2.0932,3.487
12.6080,-0.7099,-2.4187,-1.5608,2.965
12.6080,-1.5905,-1.8104,-0.9017,2.573
12.6090,-2.1417,-1.2555,-0.5942,2.553
12.6090,-2.4281,-0.5450,-0.2971,2.506
12.6090,-2.8685,0.1329,0.0725,2.873
12.6090,-3.4747,0.5261,0.4719,3.546
12.6090,-4.0437,0.7422,0.7545,4.180
12.6090,-4.5155,0.8314,0.7961,4.660
12.6100,-4.7413,1.0125,0.9344,4.937
12.6100,-4.8199,1.1791,0.9774,5.057
12.6100,-4.7666,1.4737,0.7167,5.040
12.6100,-4.7233,1.8101,0.6393,5.099
12.6100,-4.6105,2.1688,0.7376,5.148
12.6100,-4.4956,2.3895,0.9638,5.182
12.6110,-4.3836,2.2286,0.1650,4.920
12.6110,-4.2880,1.9328,-0.2239,4.709
12.6110,-4.1583,1.5906,-0.4540,4.475
12.6110,-3.8372,1.3096,-0.2722,4.064
12.6110,-3.1734,1.2480,0.4403,3.438
12.6120,-2.4205,1.3248,1.3729,3.082
12.6120,-1.7638,1.4143,2.1766,3.138
12.6120,-1.2085,1.3835,2.5125,3.112
12.6120,-0.8089,1.2813,1.9895,2.501
12.6120,-0.5783,1.2390,1.4473,1.991
12.6120,-0.4307,1.1832,1.0343,1.629
12.6130,-0.4644,1.3320,0.8639,1.654
12.6130,-0.3753,1.2494,0.7490,1.504
12.6130,-0.3361,1.1366,0.6321,1.343
12.6130,-0.3949,0.9220,0.4443,1.097
12.6130,-0.4061,0.5200,0.2507,0.706
12.6130,-0.4119,-0.0558,0.0530,0.419
12.6130,-0.3176,-0.6656,-0.2630,0.783
12.6140,-0.1129,-1.3051,-0.6393,1.458
12.6140,0.0721,-2.1451,-1.0303,2.381
12.6140,0.1800,-2.8888,-1.2276,3.144
12.6140,0.3485,-3.2871,-1.0071,3.456
12.6140,0.3392,-3.1394,-0.4115,3.184
12.6140,0.1442,-2.7453,-0.1148,2.751
12.6150,1.1501,0.1299,-3.8048,3.977
12.6150,0.6596,-1.7652,-2.0678,2.798
12.6150,0.1290,-2.9006,-1.6700,3.349
12.6150,-0.6210,-3.1694,-0.8262,3.334
12.6150,-1.4446,-2.4878,-0.2765,2.890
12.6160,-1.5578,-1.4005,-0.5764,2.173
12.6160,-1.2124,-0.9983,-0.7134,1.725
12.6160,-0.8802,-0.9420,-0.7166,1.475
12.6160,-0.6690,-1.0858,-0.7512,1.480
12.6160,-0.6105,-1.2921,-0.7598,1.618
12.6160,-0.5925,-1.4766,-0.7590,1.763
12.6160,-0.5988,-1.6183,-0.7600,1.886
12.6170,-0.6192,-1.7305,-0.7401,1.981
12.6170,-0.6333,-1.7890,-0.7028,2.024
12.6170,-0.5532,-1.7835,-0.7155,2.000
12.6170,-0.4319,-1.7574,-0.7546,1.961
12.6170,-0.2941,-1.6498,-0.7911,1.853
12.6180,-0.0792,-1.5271,-0.8570,1.753
12.6180,0.1251,-1.4484,-0.9223,1.722
12.6180,0.3368,-1.4024,-0.9837,1.746
12.6180,0.4898,-1.3713,-0.9870,1.759
12.6180,0.6663,-1.2973,-0.9548,1.743
12.6180,0.8616,-1.2303,-0.9178,1.760
12.6190,1.1041,-0.7685,-1.0168,1.686
12.6190,1.3047,-0.1448,-1.0588,1.687
12.6190,1.2193,0.0493,-0.7628,1.439
12.6190,1.1737,0.2277,-0.4669,1.283
12.6190,0.9296,0.3967,-0.0617,1.013
12.6190,1.1332,1.7276,-1.1800,2.379
12.6190,0.9233,1.0313,-0.6656,1.536
12.6200,0.7033,0.3614,-0.1277,0.801
12.6200,0.5323,-0.2507,0.4601,0.747
12.6200,0.2403,-1.2491,0.9240,1.572
12.6200,-0.0785,-1.5646,1.3467,2.066
12.6200,0.0733,-0.9796,1.4217,1.728
12.6200,1.6793,1.1340,0.4611,2.078
12.6210,2.4166,1.9171,-0.3139,3.101
12.6210,2.0138,1.4763,-0.6838,2.589
12.6210,1.1229,0.7859,-0.7526,1.564
12.6210,0.8545,0.9242,-1.0552,1.642
12.6210,0.8650,1.3583,-1.2782,2.056
12.6210,0.5426,1.5425,-1.1373,1.992
12.6210,0.4129,1.5779,-0.7745,1.806
12.6220,0.7030,1.6045,-0.6242,1.860
12.6220,0.8459,1.3142,-0.4926,1.639
12.6220,1.0186,1.1706,-0.4224,1.608
12.6220,1.4575,1.4220,-0.5073,2.099
12.6220,1.7493,1.7824,-0.5762,2.563
12.6220,1.6199,1.8448,-0.6171,2.531
12.6230,1.1008,1.6677,-0.4839,2.056
12.6230,0.3730,1.3756,-0.2695,1.451
12.6230,-0.2757,0.9861,-0.0791,1.027
12.6230,-0.7368,0.6016,0.0820,0.955
12.6230,-0.9454,0.3574,0.1976,1.030
12.6230,-1.0665,0.2497,0.1527,1.106
12.6230,-1.3006,0.2358,0.1663,1.332
12.6240,-1.5438,0.4041,0.4033,1.646
12.6240,-2.0738,0.4032,0.8209,2.267
12.6240,-2.4472,0.3483,1.1825,2.740
12.6240,-2.5197,0.3786,1.5625,2.989
12.6240,-2.3930,0.4267,2.0824,3.201
12.6240,-2.1847,0.5807,2.5221,3.387
12.6250,-1.7792,0.8541,2.7832,3.412
12.6250,-1.4637,1.0483,2.6827,3.231
12.6250,-1.7043,0.7243,2.3345,2.980
12.6250,-2.4179,-0.1412,1.6941,2.956
12.6250,-2.2094,-0.8062,1.6005,2.845
12.6250,-1.7765,-1.2091,1.4677,2.602
12.6250,-1.3936,-1.3485,1.2688,2.317
12.6260,-1.1762,-1.3217,1.1601,2.116
12.6260,-1.2757,-1.3135,1.3098,2.251
12.6260,-1.1221,-1.1925,1.3370,2.114
12.6260,-0.6955,-0.6977,1.1554,1.518
12.6260,-0.1669,0.0052,0.9532,0.968
12.6260,0.3717,0.5027,0.7611,0.985
12.6270,0.7080,0.6243,0.6457,1.144
12.6270,0.7374,0.4566,0.6392,1.077
12.6270,0.4866,0.0856,0.7261,0.878
12.6270,0.1380,-0.3295,0.8001,0.876
12.6270,-0.2795,-0.7231,0.9398,1.218
12.6270,-1.0422,-1.1942,1.1940,1.984
12.6280,-1.6402,-1.5253,1.3917,2.637
12.6280,-1.8450,-1.6655,1.4472,2.876
12.6280,-1.7300,-1.6233,1.3895,2.749
12.6280,-1.4838,-1.5334,1.3041,2.501
12.6280,-1.1161,-1.3459,1.1830,2.111
12.6280,-0.7495,-1.1275,1.0515,1.714
12.6290,-0.3632,-0.8643,0.9964,1.368
12.6290,0.3144,0.1620,3.0846,3.105
12.6290,0.7811,0.9980,4.3368,4.518
12.6290,2.0792,1.5010,3.9210,4.685
12.6290,1.8346,1.8620,4.1183,4.878
12.6300,1.0603,1.5311,4.2182,4.611
12.6300,1.0593,1.6420,4.5137,4.919
12.6300,0.5358,1.2207,4.2312,4.436
12.6300,0.5711,0.6193,3.9309,4.020
12.6300,0.5403,-0.1440,3.5585,3.602
12.6300,0.4521,-1.0000,3.2374,3.418
12.6310,0.4214,-1.7900,2.8327,3.377
12.6310,0.6049,-2.3905,2.4169,3.453
12.6310,0.8462,-2.7824,1.9613,3.508
12.6310,1.1630,-3.0325,1.4618,3.562
12.6310,1.6242,-3.0287,1.1078,3.611
12.6310,2.1144,-2.8323,0.8895,3.645
12.6320,2.5847,-2.5613,0.8338,3.733
12.6320,2.8305,-2.4380,0.8260,3.826
12.6320,3.0001,-2.4063,0.8769,3.945
12.6320,3.1626,-2.5377,0.9060,4.155
12.6320,3.2585,-2.7714,0.9282,4.377
12.6330,3.2230,-3.0585,0.9746,4.549
12.6330,3.0750,-3.4506,0.9706,4.723
12.6330,2.8048,-3.9779,0.8945,4.949
12.6330,2.4777,-4.6081,0.6648,5.274
12.6330,2.4186,-4.7654,-0.0015,5.344
12.6340,1.6610,-5.0149,-0.1419,5.285
12.6340,1.0323,-5.0273,-0.2928,5.141
12.6340,0.5910,-4.6336,-0.6799,4.720
12.6340,0.1608,-4.0355,-1.0417,4.171
12.6340,-0.2620,-3.2813,-1.4155,3.583
12.6350,-0.7276,-2.4508,-1.7109,3.076
12.6350,-1.2051,-1.6553,-1.8658,2.770
12.6350,-1.7399,-1.1543,-1.9235,2.839
12.6350,-2.3193,-1.0628,-1.8215,3.135
12.6350,-2.9614,-1.2798,-1.6742,3.635
12.6360,-3.5915,-1.3770,-1.4522,4.111
12.6360,-4.2132,-1.1677,-1.2570,4.549
12.6360,-4.7455,-0.8050,-1.1088,4.939
12.6360,-5.1845,-0.1833,-1.0488,5.293
12.6360,-5.4694,0.6278,-0.9970,5.595
12.6360,-5.5890,1.2148,-1.0167,5.809
12.6370,-5.6151,1.4488,-1.0390,5.891
12.6370,-5.4665,1.4788,-1.0065,5.752
12.6370,-5.1990,1.2912,-0.8721,5.427
12.6370,-4.7406,0.9495,-0.6037,4.872
12.6380,-4.0265,0.4546,-0.2962,4.063
12.6380,-3.1794,-0.1920,0.0744,3.186
12.6380,-2.2623,-0.8408,0.5131,2.467
12.6380,-1.3330,-1.4575,0.8788,2.162
12.6380,-0.4006,-2.0820,1.1294,2.402
12.6390,0.5311,-2.4463,1.2047,2.778
12.6390,1.3212,-2.5996,1.1586,3.138
12.6390,1.9704,-2.6916,0.9670,3.473
12.6390,2.5000,-2.6574,0.6043,3.698
12.6390,2.8885,-2.5252,0.2076,3.842
12.6390,3.1340,-2.3851,-0.1574,3.942
12.6400,3.2264,-2.2918,-0.4555,3.984
12.6400,3.1955,-2.2523,-0.7170,3.975
12.6400,3.1231,-2.2016,-0.8985,3.925
12.6400,3.0078,-2.1514,-1.0512,3.845
12.6400,3.0754,-2.6108,-1.2822,4.233
12.6410,3.1390,-3.5596,-1.5455,4.991
12.6410,3.4776,-2.8075,-1.8594,4.841
12.6410,3.7460,-1.9041,-2.1239,4.708
12.6420,3.6806,-1.5480,-2.3984,4.658
12.6420,3.3457,-1.6336,-2.6315,4.559
12.6420,2.8525,-1.7182,-2.8915,4.410
12.6420,2.2338,-1.5827,-3.0630,4.108
12.6420,1.5984,-1.1923,-2.4338,3.146
12.6420,0.8372,-0.8084,-1.0887,1.594
12.6430,0.6793,-1.8982,-2.8706,3.508
12.6430,1.1125,-2.6952,-3.7936,4.785
12.6430,1.2569,-1.4176,-2.6298,3.241
12.6430,1.2943,-0.5585,-1.9306,2.390
12.6430,1.1607,-0.5019,-2.6265,2.915
12.6440,0.8907,-0.7173,-3.1914,3.390
12.6440,0.6181,-0.8719,-2.9255,3.115
12.6440,0.3417,-0.8492,-2.2255,2.406
12.6440,0.0895,-0.7733,-1.6417,1.817
12.6440,-0.1572,-0.6958,-1.2629,1.450
12.6440,-0.3888,-0.7926,-0.8818,1.248
12.6450,-0.4565,-1.1532,-0.4176,1.309
12.6450,-0.5093,-1.3117,0.1621,1.416
12.6450,-0.5619,-1.1162,0.7203,1.442
12.6450,-0.5922,-0.8936,1.2248,1.628
12.6450,-0.7218,-0.6408,1.7630,2.010
12.6450,-0.8144,-0.5983,1.7338,2.007
12.6460,-0.9058,-0.5638,1.6998,2.007
12.6460,-0.9944,-0.5385,1.6613,2.010
12.6460,-1.0786,-0.5234,1.6178,2.014
12.6460,-1.1476,-0.5196,1.5752,2.017
12.6460,-1.2094,-0.5249,1.5300,2.020
12.6460,-1.2635,-0.5387,1.4827,2.021
12.6460,-1.3106,-0.5609,1.4333,2.022
12.6470,-1.3624,-0.5988,1.3686,2.022
12.6470,-1.4101,-0.6479,1.2983,2.023
12.6470,-1.4556,-0.7084,1.2213,2.028
12.6470,-1.5001,-0.7810,1.1370,2.038
12.6470,-1.5414,-0.8599,1.0515,2.054
12.6480,-1.5823,-0.9500,0.9599,2.080
12.6480,-1.6229,-1.0501,0.8638,2.117
12.6480,-1.6625,-1.1584,0.7652,2.166
12.6480,-1.6947,-1.2573,0.6794,2.217
12.6480,-1.7253,-1.3611,0.5936,2.276
12.6480,-1.7554,-1.4691,0.5078,2.345
12.6490,-1.7861,-1.5812,0.4218,2.422
12.6490,-1.8189,-1.6969,0.3354,2.510
12.6490,-1.8552,-1.8156,0.2486,2.608
12.6490,-2.7293,-0.4385,1.7338,3.263
12.6490,-2.7789,-0.5803,1.6392,3.278
12.6490,-2.8298,-0.7231,1.5473,3.305
12.6500,-2.8821,-0.8669,1.4582,3.344
12.6500,-2.9861,-1.0352,1.3442,3.434
12.6500,-2.8393,-1.5209,1.7392,3.661
12.6500,-2.7480,-1.6897,1.4233,3.526
12.6500,-2.6511,-1.8886,1.0905,3.433
12.6510,-2.6050,-2.1115,0.8102,3.450
12.6510,-2.5854,-2.3017,0.6223,3.517
12.6510,-2.6462,-2.4148,0.3932,3.604
12.6510,-2.7742,-2.4270,0.2268,3.693
12.6510,-2.9118,-2.3773,0.1243,3.761
12.6520,-3.0765,-2.3103,0.1720,3.851
12.6520,-3.2932,-2.3349,0.4384,4.061
12.6520,-3.5545,-2.3267,0.5781,4.287
12.6520,-3.7964,-2.2055,0.4621,4.415
12.6520,-3.9309,-2.1022,0.0902,4.459
12.6520,-4.0440,-2.3852,-0.6247,4.736
12.6530,-4.0854,-2.8021,-1.7792,5.264
12.6530,-4.1629,-1.8535,-2.6002,5.247
12.6530,-4.1231,-0.5886,-2.5789,4.899
12.6530,-4.1564,-0.2114,-2.1620,4.690
12.6530,-4.3509,0.2233,-1.6446,4.657
12.6540,-4.2525,0.0754,-0.9912,4.367
12.6540,-3.7466,-0.3305,-3.2750,4.987
12.6540,-3.4166,-0.4753,-3.6338,5.010
12.6540,-3.4139,-0.3859,-2.4482,4.219
12.6540,-3.2934,-0.4973,-1.8264,3.799
12.6550,-3.0422,-0.5035,-2.7151,4.109
12.6550,-2.7434,-0.4598,-3.4240,4.412
12.6550,-2.4918,-0.4324,-3.3906,4.230
12.6550,-2.3254,-0.2617,-3.1335,3.911
12.6550,-2.2118,-0.0150,-3.0886,3.799
12.6560,-2.0746,0.2355,-3.2969,3.902
12.6560,-1.9656,0.5421,-3.5436,4.088
12.6560,-1.8429,0.8355,-3.6209,4.148
12.6610,-1.7022,0.9287,-3.5745,4.067
12.6660,-1.5271,0.8182,-3.5165,3.920
12.6710,-1.3678,0.5929,-3.4848,3.790
12.6760,-1.2853,0.3906,-3.4337,3.687
12.6820,-1.3373,0.3292,-3.4060,3.674
12.6850,-1.0336,-0.0554,-2.8066,2.991
12.6900,0.7020,-0.2907,2.1016,2.235
12.6950,1.9561,-0.4279,2.2332,2.999
12.7000,1.6949,-1.0316,0.8185,2.146
12.7050,1.8460,-0.2469,1.6870,2.513
12.7090,1.8987,0.9178,2.8392,3.537
12.7140,1.7768,1.7369,2.9011,3.820
12.7200,1.7612,2.2216,2.4893,3.773
12.7280,1.6140,2.2474,2.3297,3.617
12.7290,1.5894,2.3059,2.2734,3.607
12.7340,1.4961,2.3105,2.1321,3.482
12.7400,1.2920,2.3760,2.1092,3.430
12.7440,1.0914,2.4225,2.3009,3.515
12.7480,0.8865,2.4697,2.5691,3.672
12.7530,0.7103,2.4023,2.7637,3.730
12.7580,0.5166,2.1270,2.7776,3.536
12.7630,0.3644,1.8487,2.6419,3.245
12.7690,0.2760,1.5205,2.4157,2.868
12.7720,0.1718,1.1887,2.1796,2.489
12.7780,0.0803,0.9404,2.0501,2.257
12.7820,0.0391,0.7937,1.9414,2.098
12.7870,0.0962,0.8755,1.8300,2.031
12.7930,0.1681,1.0321,1.6879,1.986
12.7970,0.6353,1.8006,1.5372,2.451
12.8030,1.4441,2.6504,1.1966,3.247
12.8070,2.1416,3.1864,0.7707,3.916
12.8110,2.6883,3.5202,0.3520,4.443
12.8160,2.9837,3.6509,-0.0527,4.715
12.8220,3.0649,3.6165,-0.3650,4.755
12.8260,2.9937,3.4142,-0.6782,4.591
12.8310,2.7442,3.0335,-0.9542,4.200
12.8360,1.9046,1.9186,-1.2357,2.972
12.8400,0.5545,0.8152,-1.3111,1.640
12.8450,0.1684,1.1850,-1.3236,1.785
12.8510,0.5817,1.8172,-1.5214,2.440
12.8550,0.8041,1.8980,-1.7488,2.703
12.8600,1.4316,2.1203,-1.4059,2.919
12.8640,2.5931,2.6309,-1.2676,3.905
12.8690,2.7876,2.0953,-1.4093,3.761
12.8740,2.0520,0.7045,-1.1563,2.458
12.8790,2.3633,0.9807,-0.3405,2.581
12.8840,3.4516,1.4310,-0.1898,3.741
12.8890,4.0136,1.7600,-0.5549,4.418
12.8940,4.8597,2.0108,-0.7343,5.310
12.8990,5.5506,2.0085,-0.9794,5.983
12.9030,5.6436,1.6915,-1.2992,6.033
12.9080,5.4535,1.3124,-1.5992,5.833
12.9130,5.2017,0.9231,-1.6646,5.539
12.9180,4.9638,0.5432,-1.5671,5.234
12.9230,4.6682,0.2300,-1.3922,4.877
12.9270,4.3226,-0.1021,-1.0936,4.460
12.9320,1.3296,-3.2268,-1.5008,3.799
12.9380,1.5682,-1.7385,-0.3281,2.364
12.9420,2.2362,-0.7214,-0.6056,2.426
12.9470,1.5454,-0.3172,-1.3804,2.096
12.9510,2.3633,-0.0249,-1.5852,2.846
12.9570,2.8161,-0.0350,-2.0162,3.464
12.9610,2.8173,-0.0343,-2.2923,3.632
12.9680,2.8552,0.0200,-2.2416,3.630
12.9710,2.8582,-0.0323,-2.0644,3.526
12.9760,2.7795,-0.1789,-1.9776,3.416
12.9820,2.5838,-0.3072,-1.9880,3.275
12.9860,2.1217,-0.4748,-2.0119,2.962
12.9910,1.6232,-0.6029,-1.9725,2.625
12.9950,1.1159,-0.7351,-1.8937,2.318
13.0010,0.7030,-0.8458,-1.8038,2.113
13.0050,0.2811,-0.9622,-1.7695,2.034
13.0100,-0.0872,-1.0703,-1.7447,2.049
13.0150,-0.4090,-1.0986,-1.7292,2.089
13.0190,-0.7045,-1.0329,-1.7534,2.154
13.0240,-1.0356,-0.9182,-1.8507,2.311
13.0290,-1.3668,-0.8022,-2.0252,2.572
13.0350,-1.6117,-0.6819,-2.2121,2.821
13.0390,-1.7755,-0.5333,-2.2968,2.952
13.0430,-1.8432,-0.3371,-2.3030,2.969
13.0490,-1.8274,0.1126,-1.9495,2.674
13.0530,-1.7532,0.3907,-1.7728,2.524
13.0580,-1.5736,0.3541,-1.8691,2.469
13.0630,-1.3777,0.2243,-1.8940,2.353
13.0680,-1.1762,0.2020,-1.7472,2.116
13.0730,-0.9893,0.2701,-1.4677,1.790
13.0780,-0.7653,0.3400,-1.2948,1.542
13.0830,-0.5184,0.3349,-1.2143,1.362
13.0900,-0.2706,0.2575,-1.1591,1.218
13.0960,0.0029,0.2008,-1.0789,1.097
13.0980,0.2812,0.1523,-0.9857,1.036
13.1020,0.4824,0.1593,-0.9176,1.049
13.1060,0.6494,0.1887,-0.8868,1.115
13.1110,0.8058,0.2378,-0.9027,1.233
13.1170,0.9614,0.2200,-0.9721,1.385
13.1210,1.0704,0.1561,-1.1281,1.563
13.1260,1.1996,-0.1399,-1.2866,1.765
13.1310,1.3856,-0.9349,-1.3875,2.172
13.1360,1.2750,-0.7338,-1.3807,2.018
13.1410,1.2511,-0.5465,-1.3758,1.938
13.1460,1.2220,-0.4111,-1.3582,1.873
13.1500,1.2026,-0.3354,-1.3201,1.817
13.1550,1.1975,-0.2681,-1.1604,1.689
13.1610,1.1898,-0.2674,-0.9721,1.560
13.1650,1.1293,-0.3575,-0.7239,1.388
13.1700,1.0481,-0.4721,-0.4971,1.252
13.1750,0.9776,-0.5829,-0.2938,1.175
13.1790,0.8695,-0.7025,-0.1426,1.127
13.1850,0.7257,-0.8599,-0.1391,1.134
13.1890,0.5445,-1.0884,-0.2875,1.251
13.1940,0.3575,-1.2689,-0.4222,1.384
13.2000,0.2273,-1.2865,-0.3207,1.345
13.2040,0.0901,-1.2433,-0.0886,1.250
13.2080,-0.0733,-1.2367,-0.0589,1.240
13.2130,-0.2569,-1.3166,-0.2006,1.356
13.2180,-0.4316,-1.3059,-0.1508,1.384
13.2230,-0.5878,-1.2525,0.1686,1.394
13.2280,-0.7124,-1.3327,0.4702,1.583
13.2340,-0.8035,-1.6702,0.3436,1.885
13.2390,-0.8862,-2.0760,0.0662,2.258
13.2430,-0.9960,-2.1629,0.1332,2.385
13.2470,-1.1407,-2.1363,0.3858,2.452
13.2530,-1.1852,-2.2963,0.3417,2.607
13.2570,-1.1907,-2.4627,0.1637,2.740
13.2610,-1.1810,-2.5683,0.0222,2.827
13.2670,-1.1583,-2.5273,-0.0702,2.781
13.2720,-1.1429,-2.4930,-0.2016,2.750
13.2760,-1.0906,-2.4514,-0.3284,2.703
13.2810,-1.0527,-2.3711,-0.4096,2.626
13.2860,-1.0599,-2.2303,-0.4907,2.518
13.2910,-0.8660,-2.4298,0.3603,2.605
13.2960,-0.6611,-2.3568,2.3284,3.378
13.3010,-0.5794,-1.9748,1.6960,2.667
13.3050,-0.8018,-1.8405,0.5780,2.089
13.3100,-0.9321,-1.6438,0.6727,2.006
13.3150,-0.9270,-1.4642,1.1256,2.066
13.3200,-0.9005,-1.3571,1.2336,2.043
13.3250,-0.9539,-1.2411,1.2272,1.989
13.3290,-1.0362,-1.1190,1.2480,1.971
13.3340,-1.1064,-1.0347,1.3424,2.024
13.3390,-1.1241,-0.9745,1.2791,1.962
13.3440,-1.0806,-0.9305,1.0089,1.747
13.3490,-0.9167,-0.7662,0.5422,1.312
13.3530,-0.7103,-0.4944,0.1309,0.875
13.3590,-0.5502,-0.2877,-0.1243,0.633
13.3630,-0.4969,-0.1966,-0.1404,0.553
13.3690,-0.5977,-0.1107,0.1318,0.622
13.3730,-0.7961,-0.0344,0.5354,0.960
13.3790,-1.0468,0.0076,0.9855,1.438
13.3830,-1.3354,0.0480,1.3308,1.886
13.3880,-1.6235,0.0044,1.5277,2.229
13.3920,-1.8449,-0.0842,1.5710,2.425
13.3990,-2.0129,-0.1047,1.5512,2.543
13.4020,-2.1354,-0.0152,1.5157,2.619
13.4080,-2.2417,0.1659,1.4976,2.701
13.4130,-2.3302,0.3484,1.4487,2.766
13.4170,-2.7805,0.9321,1.2681,3.195
13.4220,-3.3491,1.6112,1.1994,3.905
13.4260,-3.9377,2.0158,1.3144,4.615
13.4310,-4.5887,1.9139,1.4530,5.180
13.4370,-5.0907,1.5676,1.6323,5.571
13.4410,-5.3739,1.2559,1.7733,5.797
13.4460,-5.4289,1.1436,1.8595,5.851
13.4510,-5.3045,1.1298,1.9298,5.757
13.4550,-5.0483,1.0222,2.0135,5.530
13.4600,-4.7255,0.7788,2.0925,5.226
13.4660,-4.3683,0.5231,2.1289,4.887
13.4700,-3.9631,0.3817,2.0940,4.499
13.4750,-3.5687,0.2619,2.0286,4.113
13.4800,-3.1818,0.0132,2.0235,3.771
13.4850,-2.7995,-0.3453,2.1506,3.547
13.4940,-2.5948,-0.7968,2.3378,3.582
13.4940,-2.6511,-1.1604,2.5209,3.838
13.4990,-2.9044,-1.6208,2.2529,4.017
13.5040,-1.9626,-0.9967,2.3133,3.193
13.5090,-1.2187,-0.4775,1.9891,2.381
13.5130,-0.8061,-0.2280,1.5129,1.729
13.5200,-0.4224,0.0767,1.1263,1.205
13.5230,-0.2732,0.3061,0.8050,0.904
13.5280,-0.3368,0.4342,0.7426,0.924
13.5330,-0.6442,0.2408,0.8001,1.055
13.5390,-0.7785,0.2387,1.1448,1.405
13.5430,-0.8093,0.1915,1.4590,1.679
13.5480,-0.7535,0.1409,1.6568,1.826
13.5530,-0.6664,0.0986,1.7360,1.862
13.5570,-0.5501,-0.0352,1.8926,1.971
13.5620,-0.4824,-0.2500,2.0973,2.167
13.5680,-0.4925,-0.3779,2.2928,2.375
13.5720,-0.5828,-0.3309,2.3906,2.483
13.5770,-0.6776,-0.1430,2.3693,2.468
13.5820,-0.9004,0.0848,2.3488,2.517
13.5870,-1.2256,0.1149,2.2432,2.559
13.5910,-1.5291,0.0683,2.0721,2.576
13.5960,-1.7058,-0.1591,1.8958,2.555
13.6010,-1.6083,-0.4549,1.7240,2.401
13.6060,-1.2429,-0.8093,1.5615,2.154
13.6100,-0.6423,-1.1052,1.4611,1.941
13.6160,0.1281,-1.2946,1.3657,1.886
13.6220,0.9308,-1.3634,1.1821,2.030
13.6250,1.7187,-1.2970,0.9942,2.372
13.6300,2.3624,-1.1819,0.8049,2.761
13.6350,2.8280,-1.0220,0.6043,3.067
13.6410,3.0222,-0.7661,0.3206,3.134
13.6440,3.0472,-0.4577,-0.1258,3.084
13.6510,2.9630,-0.2133,-0.7086,3.054
13.6540,2.7930,-0.1012,-1.3521,3.105
13.6590,2.5806,-0.0801,-1.9093,3.211
13.6640,2.3233,-0.1634,-2.2691,3.252
13.6690,2.1200,-0.3721,-2.4308,3.247
13.6740,1.9005,-0.5408,-2.1992,2.956
13.6780,1.6039,-0.5883,-1.6878,2.401
13.6840,1.4309,-0.6309,-1.3034,2.036
13.6880,1.4800,-0.7187,-1.0930,1.975
13.6930,1.7254,-0.7844,-0.9310,2.112
13.6990,2.0763,-0.7896,-0.7684,2.351
13.7020,2.5296,-0.8248,-0.6139,2.731
13.7080,3.1312,-0.8774,-0.3400,3.270
13.7120,3.8360,-0.9064,0.0945,3.943
13.7180,4.4342,-0.7896,0.5418,4.536
13.7220,3.9701,-0.8490,-0.0423,4.060
13.7270,3.1084,-1.0911,-0.5691,3.343
13.7320,2.6540,-1.3154,-0.8658,3.086
13.7380,2.4008,-1.5803,-1.0683,3.066
13.7410,2.2661,-1.8229,-0.9615,3.063
13.7460,2.2403,-2.0571,-0.6919,3.119
13.7520,2.3180,-2.2707,-0.4467,3.275
13.7560,2.4093,-2.5272,-0.2411,3.500
13.7610,2.4422,-2.7683,-0.0040,3.692
13.7660,2.4384,-2.8883,0.2494,3.788
13.7720,2.4851,-2.9304,0.4209,3.865
13.7750,2.4962,-2.9013,0.4548,3.854
13.7800,2.4587,-2.8578,0.3434,3.786
13.7860,2.3580,-2.7970,0.1989,3.664
13.7900,2.2258,-2.7585,0.0352,3.545
13.7950,2.0398,-2.7136,-0.1570,3.398
13.8010,1.8424,-2.6761,-0.4515,3.280
13.8050,1.7477,-2.7512,-0.5972,3.314
13.8090,1.6123,-2.7786,-0.7015,3.288
13.8140,1.3674,-2.6246,-0.7979,3.065
13.8190,1.1409,-2.4927,-0.7570,2.844
13.8240,0.9478,-2.4261,-0.6337,2.681
13.8290,0.6749,-2.2553,-0.4448,2.396
13.8340,0.3568,-1.9561,-0.1408,1.993
13.8390,0.0099,-1.6745,0.0791,1.676
13.8430,-0.3149,-1.3893,0.1263,1.430
13.8480,-0.5733,-1.1348,0.1469,1.280
13.8530,-0.7743,-0.8400,0.2035,1.160
13.8580,-0.8214,-0.6307,0.2491,1.065
13.8630,-0.7111,-0.4008,0.3540,0.890
13.8680,-0.5970,0.3586,0.4313,0.819
13.8730,-0.4591,0.2193,0.5595,0.756
13.8770,-0.4570,0.0649,0.4775,0.664
13.8820,-0.5540,0.0621,0.3416,0.654
13.8870,-0.8274,-0.1521,0.0426,0.842
13.8910,-1.3407,-1.8210,-0.6914,2.365
13.8960,-0.9232,-0.2223,-0.2966,0.995
13.9030,-0.6801,1.1852,0.2827,1.395
13.9060,-1.1123,1.7329,0.8078,2.212
13.9110,-1.7661,1.8236,0.7575,2.649
13.9160,-2.3384,1.7354,0.6006,2.973
13.9210,-2.7446,1.5745,0.6645,3.233
13.9250,-2.8290,1.3395,1.0181,3.292
13.9320,-2.5962,1.0999,1.4955,3.192
13.9350,-2.2460,0.9359,1.9289,3.105
13.9400,-1.8739,0.8377,2.3224,3.100
13.9450,-1.4778,0.7477,2.6569,3.131
13.9500,-1.1053,0.5566,2.9343,3.185
13.9550,-0.7052,0.3866,3.1119,3.214
13.9600,-0.3564,0.2740,3.2469,3.278
13.9640,-0.1278,0.2284,3.3728,3.383
13.9690,-0.0048,0.1857,3.4344,3.439
13.9740,0.1120,0.2649,3.4994,3.511
13.9790,0.1493,0.3130,3.5393,3.556
13.9860,0.3998,0.2747,3.7604,3.792
13.9900,0.6327,0.1237,3.8177,3.872
13.9950,0.7456,-0.1218,3.4733,3.554
13.9990,0.7219,-0.2618,3.4031,3.489
14.0050,0.6224,-0.2316,3.6307,3.691
14.0090,0.3765,-0.2873,3.5439,3.575
14.0140,0.1745,-0.3894,3.1848,3.213
14.0180,-0.0292,-0.4251,2.8754,2.907
14.0230,-0.1944,-0.4464,2.8031,2.845
14.0290,-0.3124,-0.5149,2.8861,2.948
14.0370,-0.4246,-0.6727,2.9674,3.072
14.0380,-0.5796,-0.8529,2.9552,3.130
14.0460,-0.6624,-1.0126,2.8126,3.062
14.0480,-0.6694,-1.1113,2.5917,2.898
14.0550,-0.6753,-1.1201,2.2270,2.583
14.0590,-0.5969,-1.0314,1.7270,2.098
14.0660,-0.4255,-0.9292,1.1544,1.542
14.0670,-0.2108,-0.8384,0.5989,1.052
14.0740,-0.0293,-0.7625,0.0999,0.770
14.0770,0.1337,-0.6776,-0.4410,0.819
14.0840,0.3628,-0.6182,-1.0199,1.247
14.0880,0.6073,-0.5430,-1.4068,1.626
14.0930,0.8405,-0.4661,-1.6037,1.870
14.0970,1.1185,-0.4603,-1.7027,2.089
14.1030,1.4138,-0.5258,-1.7914,2.342
14.1060,1.6315,-0.6486,-1.7928,2.509
14.1110,1.8064,-0.6902,-1.6917,2.569
14.1160,1.8986,-0.6922,-1.5541,2.549
14.1210,1.9048,-0.7103,-1.4505,2.497
14.1260,1.8239,-0.7600,-1.3959,2.419
14.1300,1.6931,-0.7920,-1.4198,2.347
14.1350,1.4989,-0.7760,-1.4231,2.208
14.1400,1.2035,-0.7224,-1.2476,1.878
14.1450,0.7963,-0.6557,-0.8503,1.337
14.1500,0.3713,-0.5031,-0.4898,0.794
14.1540,0.0989,-0.2872,-0.2140,0.372
14.1590,-0.0870,-0.1042,0.1416,0.196
14.1650,-0.2440,-0.0856,0.5014,0.564
14.1700,-0.2741,-0.4630,0.4004,0.671
14.1730,-0.0721,-0.7238,0.1485,0.742
14.1780,0.0249,-0.3707,-0.0092,0.372
14.1820,-0.0341,-0.1357,-0.0352,0.144
14.1870,-0.2668,-0.1405,0.3088,0.432
14.1930,-0.5644,-0.2681,0.6058,0.870
14.1980,-0.7619,-0.3970,0.7511,1.141
14.2020,-0.8531,-0.4988,0.7797,1.259
14.2070,-0.8696,-0.5718,0.8390,1.337
14.2120,-0.9031,-0.4996,0.9138,1.378
14.2190,-1.0198,-0.3501,0.9979,1.469
14.2230,-1.0376,-0.1862,0.9844,1.442
14.2280,-1.0118,-0.0940,0.9333,1.380
14.2330,-0.9334,-0.0611,0.9038,1.301
14.2380,-0.8532,-0.0562,0.8812,1.228
14.2420,-0.7837,-0.0331,0.9339,1.220
14.2460,-0.7089,-0.0269,1.0227,1.245
14.2510,-0.6393,-0.0488,1.1033,1.276
14.2560,-0.5523,-0.1243,1.1603,1.291
14.2610,-0.5211,-0.2668,1.1081,1.253
14.2660,-0.4893,-0.4128,0.8903,1.097
14.2710,-0.4785,-0.5137,0.6426,0.952
14.2760,-0.5341,-0.5164,0.4240,0.855
14.2800,-0.6789,-0.3740,0.0795,0.779
14.2850,-0.7781,-0.1963,-0.7995,1.133
14.2900,-0.7669,0.1013,-1.3894,1.590
14.2960,-0.9264,0.3523,-1.5346,1.827
14.2990,-1.1219,0.4967,-1.2851,1.777
14.3030,-1.1867,0.5034,-0.9832,1.621
14.3080,-1.1260,0.4098,-0.6739,1.375
14.3130,-1.0231,0.2847,-0.3013,1.104
14.3180,-0.8588,0.1678,0.1379,0.886
14.3230,-0.6664,0.0252,0.6154,0.907
14.3270,-0.4199,-0.1840,1.0717,1.166
14.3330,-0.1051,-0.3907,1.3322,1.392
14.3380,0.1411,-0.5187,1.3689,1.471
14.3420,0.2928,-0.5516,1.2754,1.420
14.3470,0.4320,-0.5778,1.0882,1.306
14.3520,0.5306,-0.5991,0.8600,1.175
14.3560,0.5772,-0.5749,0.5958,1.009
14.3610,0.5622,-0.5309,0.2736,0.820
14.3670,0.5238,-0.5188,0.0291,0.738
14.3720,0.4639,-0.4923,-0.1174,0.687
14.3760,0.4372,-0.5133,-0.1093,0.683
14.3810,0.3711,-0.5713,-0.0101,0.681
14.3860,0.3097,-0.6561,0.0901,0.731
14.3910,0.1988,-0.7123,0.0941,0.745
14.3950,0.1235,-0.7132,-0.0279,0.724
14.4000,0.1168,-0.6332,-0.2780,0.701
14.4050,0.2504,-0.5062,-0.7656,0.951
14.4100,0.3474,-0.1246,-1.4518,1.498
14.4150,0.3216,-0.0737,-2.0272,2.054
14.4200,0.1017,-0.3382,-2.3378,2.364
14.4240,-0.1689,-0.6065,-2.3490,2.432
14.4300,0.2060,-0.4649,-2.3995,2.453
14.4340,0.4465,-0.4203,-2.3152,2.395
14.4390,0.5934,-0.3697,-2.0725,2.187
14.4440,0.7206,-0.2867,-1.9565,2.105
14.4480,0.7346,-0.3123,-1.8526,2.017
14.4540,0.7908,-0.3651,-1.7631,1.967
14.4580,0.8986,-0.3521,-1.7573,2.005
14.4650,0.9964,-0.4095,-1.6149,1.941
14.4680,0.9577,-0.4343,-1.1996,1.595
14.4730,0.8976,-0.4392,-0.7764,1.265
14.4780,0.8664,-0.4703,-0.5616,1.135
14.4830,0.8336,-0.4042,-0.4579,1.033
14.4900,0.6255,-0.5071,-0.4043,0.901
14.4930,0.4163,-0.5237,-0.4288,0.795
14.4980,0.2127,-0.4899,-0.6058,0.808
14.5030,0.0911,-0.4465,-0.8778,0.989
14.5070,0.1239,-0.4365,-1.1293,1.217
14.5130,0.2315,-0.4268,-1.2990,1.387
14.5200,0.4115,-0.5564,-1.3847,1.548
14.5220,0.2767,-1.2723,-1.6211,2.079
14.5270,-0.1859,-2.0505,-1.9879,2.862
14.5310,0.6321,-0.9022,-0.6407,1.274
14.5350,1.2146,-0.2058,0.5539,1.351
14.5410,0.1754,-0.8691,-0.7687,1.173
14.5450,0.0027,-0.7693,-2.3040,2.429
14.5500,-0.1641,-0.6157,-3.0121,3.079
14.5550,-0.4187,-0.8016,-3.4590,3.575
14.5600,-0.1139,-0.3548,-3.3861,3.407
14.5650,0.1182,0.5701,-2.7573,2.818
14.5700,-0.0471,0.7311,-2.0328,2.161
14.5750,-0.3501,0.3128,-1.7964,1.857
14.5790,-0.5310,-0.2144,-1.5929,1.693
14.5840,-0.4845,-0.4887,-1.3322,1.499
14.5890,-0.1789,-0.5302,-1.2230,1.345
14.5940,0.1571,-0.5226,-1.1884,1.308
14.5990,0.3332,-0.5559,-1.1616,1.330
14.6040,0.3164,-0.5856,-1.0910,1.278
14.6090,0.1303,-0.5991,-0.9869,1.162
14.6130,-0.0798,-0.5730,-0.9666,1.127
14.6180,-0.3224,-0.4951,-1.0412,1.197
14.6230,-0.5307,-0.4192,-1.0306,1.233
14.6280,-0.6743,-0.4302,-0.8917,1.198
14.6330,-0.7736,-0.4960,-0.6632,1.133
14.6380,-0.8997,-0.5304,-0.3925,1.116
14.6460,-0.9620,-0.5154,-0.0720,1.094
14.6490,-0.9828,-0.5037,0.3695,1.164
14.6550,-1.0108,-0.5004,1.0364,1.532
14.6590,-1.0645,-0.4822,1.8894,2.222
14.6650,-1.0927,-0.4682,2.7571,3.002
14.6690,-1.1040,-0.4096,3.6419,3.828
14.6730,-1.1543,-0.3507,4.4099,4.572
14.6770,-1.2898,-0.3715,4.9823,5.160
14.6840,-1.6112,-0.3859,5.3996,5.648
14.6870,-2.1293,-0.2653,5.5915,5.989
14.6940,-2.5680,-0.0554,5.5214,6.090
14.6960,-2.7608,0.1939,5.2845,5.965
14.7010,-2.7985,0.3543,4.9949,5.736
14.7120,-2.8028,0.3766,4.8513,5.615
14.7130,-2.7827,0.2399,4.8917,5.633
14.7170,-2.7518,0.1067,5.0187,5.725
14.7210,-2.6449,-0.0120,5.0973,5.743
14.7270,-2.3949,-0.0531,4.9966,5.541
14.7320,-2.1185,-0.0492,4.6675,5.126
14.7360,-1.8312,-0.0445,4.1851,4.568
14.7400,-1.4994,-0.0731,3.6429,3.940
14.7440,-1.1592,-0.0936,3.1399,3.348
14.7490,-0.8076,-0.0860,2.7596,2.877
14.7550,-0.4887,-0.0766,2.4879,2.537
14.7590,-0.2450,-0.1074,2.2914,2.307
14.7640,-0.0596,-0.1569,2.1265,2.133
14.7690,0.0656,-0.1115,2.0435,2.048
14.7740,0.1333,-0.1017,1.9565,1.964
14.7790,0.2089,-0.0354,1.8561,1.868
14.7840,0.2674,-0.0132,1.6912,1.712
14.7880,0.2980,-0.0604,1.4555,1.487
14.7930,0.2834,-0.0783,1.1074,1.146
14.7980,0.2260,-0.0781,0.7131,0.752
14.8030,0.2309,-0.1244,0.3396,0.429
14.8080,0.2440,-0.1952,-0.0083,0.313
14.8120,0.2973,-0.2786,-0.2557,0.481
14.8170,0.3612,-0.3294,-0.3751,0.616
14.8220,0.4127,-0.3487,-0.4011,0.673
14.8270,0.4502,-0.3804,-0.3757,0.699
14.8310,0.4552,-0.3678,-0.4794,0.756
14.8360,0.4432,-0.3235,-0.6989,0.889
14.8420,0.4177,-0.2483,-0.9441,1.062
14.8460,0.3845,-0.2138,-1.1141,1.198
14.8510,0.3677,-0.2010,-1.1680,1.241
14.8560,0.3268,-0.1951,-1.0871,1.152
14.8610,0.2586,-0.1821,-0.9341,0.986
14.8650,0.2147,-0.1737,-0.7767,0.824
14.8710,0.1919,-0.1844,-0.6728,0.724
14.8760,0.1821,-0.1903,-0.6064,0.661
14.8810,0.1513,-0.2534,-0.5827,0.653
14.8850,0.1347,-0.2873,-0.5570,0.641
14.8900,0.1128,-0.3131,-0.5371,0.632
14.8960,0.1021,-0.3523,-0.5065,0.625
14.9010,0.1119,-0.4117,-0.4252,0.602
14.9050,0.1110,-0.4416,-0.3192,0.556
14.9090,0.0803,-0.4660,-0.2098,0.517
14.9140,0.0103,-0.4639,-0.1232,0.480
14.9190,-0.0632,-0.4641,-0.2001,0.509
14.9240,-0.0947,-0.4026,-0.5068,0.654
14.9300,-0.0981,-0.3157,-0.7864,0.853
14.9330,-0.0553,-0.2986,-1.0360,1.080
14.9380,0.0582,-0.3362,-1.1790,1.227
14.9430,0.1951,-0.3589,-1.2824,1.346
14.9480,0.2574,-0.3617,-1.2077,1.287
14.9530,0.2974,-0.3560,-1.0539,1.151
14.9580,0.3003,-0.3561,-0.8026,0.928
14.9620,0.0600,-0.3953,-0.6266,0.743
14.9680,-0.1853,-0.2391,-0.5747,0.649
14.9720,-0.4459,-0.1004,-0.6475,0.793
14.9770,-0.7606,0.0354,-0.7499,1.069
14.9810,-0.9007,0.1299,-0.8158,1.222
14.9870,-1.0077,0.0090,-0.6758,1.213
14.9920,-0.9598,-0.1046,-0.3663,1.033
14.9960,-0.7813,-0.1657,0.0120,0.799
15.0020,-0.5081,-0.2463,0.3448,0.662
15.0060,-0.2518,-0.3134,0.5688,0.697
15.0110,-0.0276,-0.4035,0.8174,0.912
15.0150,0.1586,-0.4959,1.0591,1.180
15.0210,0.2838,-0.6125,1.3427,1.503
15.0250,0.3838,-0.6989,1.5587,1.751
15.0300,0.4636,-0.7624,1.7338,1.950
15.0370,0.5375,-0.7795,1.9613,2.178
15.0400,0.5625,-0.8530,2.2460,2.468
15.0450,0.5767,-0.9041,2.5783,2.792
15.0490,0.5963,-0.9140,2.8742,3.074
15.0540,0.6638,-0.6704,2.9377,3.085
15.0590,1.5218,0.4180,1.5963,2.245
15.0640,1.2111,-0.4909,0.4894,1.395
15.0690,1.0483,-1.1405,0.1227,1.554
15.0730,1.2914,-0.9721,0.1757,1.626
15.0780,1.2837,-0.6079,0.1306,1.426
15.0830,0.9873,-0.3922,-0.0667,1.064
15.0880,0.5962,-0.3407,-0.2165,0.720
15.0930,0.2871,-0.2591,-0.2476,0.459
15.0980,0.0632,-0.1519,-0.2644,0.311
15.1030,-0.0555,-0.1055,-0.3543,0.374
15.1080,-0.1343,-0.1215,-0.5110,0.542
15.1120,-0.1777,-0.1160,-0.6677,0.701
15.1190,-0.1823,-0.0359,-0.7427,0.766
15.1230,-0.2289,-0.0461,-0.6592,0.699
15.1270,-0.3818,-0.0775,-0.4578,0.601
15.1320,-0.7442,-0.0944,-0.1077,0.758
15.1370,-1.0452,0.0914,0.0792,1.052
15.1420,-1.2616,0.3049,0.1364,1.305
15.1460,-1.2906,0.4354,0.0814,1.365
15.1520,-1.2418,0.4945,-0.1343,1.343
15.1560,-1.1782,0.5053,-0.4202,1.349
15.1610,-1.0911,0.4891,-0.6885,1.380
15.1660,-0.9647,0.4503,-0.8346,1.353
15.1710,-0.8048,0.4100,-0.8143,1.216
15.1760,-0.6661,0.3223,-0.6678,0.997
15.1800,-0.5914,0.1871,-0.4617,0.773
15.1850,-0.4402,0.1716,-0.2180,0.520
15.1900,-0.4875,0.1587,0.0557,0.516
15.1950,-0.8778,0.0511,0.4415,0.984
15.2000,-1.1346,0.1557,0.7788,1.385
15.2060,-1.2178,0.3075,0.8121,1.496
15.2100,-1.2914,0.3699,0.6318,1.484
15.2140,-1.2993,0.3956,0.4207,1.422
15.2190,-1.1922,0.3825,0.2493,1.277
15.2240,-1.0815,0.3447,0.1929,1.151
15.2290,-0.9617,0.3588,0.1465,1.037
15.2340,-0.8490,0.2793,0.1223,0.902
15.2390,-0.8170,0.1469,0.0777,0.834
15.2430,-0.7150,0.0762,0.0271,0.720
15.2490,-0.5284,0.0453,-0.0884,0.538
15.2530,-0.3449,0.0244,-0.1072,0.362
15.2580,-0.1802,-0.0124,0.0239,0.182
15.2620,0.0234,-0.0626,0.2328,0.242
15.2680,0.1123,-0.1117,0.3590,0.392
15.2730,0.1076,-0.2435,0.4428,0.517
15.2770,0.1140,-0.3412,0.5368,0.646
15.2820,0.2101,-0.4407,0.5980,0.772
15.2870,0.3961,-0.4421,0.5863,0.834
15.2920,0.5023,-0.4793,0.4926,0.851
15.2970,0.5006,-0.5282,0.3172,0.794
15.3020,0.4845,-0.5070,0.1960,0.728
15.3060,0.4613,-0.4777,0.1196,0.675
15.3110,0.4855,-0.4564,0.1227,0.678
15.3160,0.4846,-0.4617,0.1371,0.683
15.3210,0.4506,-0.5093,0.2210,0.715
15.3260,0.4092,-0.5992,0.4072,0.832
15.3300,0.3669,-0.6875,0.6055,0.987
15.3360,0.3228,-0.7097,0.7388,1.074
15.3400,0.2507,-0.7088,0.7923,1.092
15.3450,0.1269,-0.6951,0.8104,1.075
15.3500,-0.0218,-0.6255,0.8291,1.039
15.3560,-0.1622,-0.5265,0.8434,1.007
15.3600,-0.2328,-0.4864,0.7522,0.925
15.3640,-0.2199,-0.5129,0.6106,0.827
15.3690,-0.1329,-0.5650,0.4643,0.743
15.3740,0.0313,-0.5517,0.3206,0.639
15.3790,0.1783,-0.4822,0.2638,0.578
15.3840,0.2661,-0.4209,0.2564,0.560
15.3890,0.2929,-0.3990,0.3420,0.602
15.3940,0.2421,-0.3571,0.5137,0.671
15.3980,0.1565,-0.2503,0.6332,0.699
15.4030,0.0552,-0.0644,0.6718,0.677
15.4080,-0.0213,0.0354,0.6201,0.621
15.4130,-0.0732,0.0902,0.5207,0.534
15.4180,-0.0625,0.1647,0.3901,0.428
15.4240,-0.0635,0.2424,0.2900,0.383
15.4270,-0.0736,0.3233,0.2706,0.428
15.4330,-0.0882,0.3934,0.3218,0.516
15.4380,-0.1359,0.3451,0.4458,0.580
15.4420,-0.1743,0.1998,0.7236,0.771
15.4470,-0.1253,-0.0116,1.0470,1.055
15.4520,-0.0423,-0.3058,1.4010,1.435
15.4570,0.1098,-0.5463,1.6054,1.699
15.4620,0.2569,-0.6420,1.6528,1.792
15.4660,0.3467,-0.5908,1.5103,1.658
15.4710,0.3492,-0.5268,1.2389,1.391
15.4760,0.3107,-0.5077,0.9908,1.156
15.4820,0.2249,-0.4978,0.8288,0.993
15.4860,0.1252,-0.4898,0.7362,0.893
15.4910,0.0042,-0.4263,0.6119,0.746
15.4970,-0.1122,-0.3647,0.4175,0.566
15.5000,-0.1880,-0.3458,0.1534,0.422
15.5050,-0.2516,-0.2981,-0.0627,0.395
15.5100,-0.2855,-0.2839,-0.2154,0.457
15.5150,-0.3323,-0.3702,-0.2351,0.550
15.5200,-0.4090,-0.4039,-0.1173,0.587
15.5240,-0.4188,-0.2845,-0.1600,0.531
15.5290,-0.5041,-0.1464,-0.3495,0.631
15.5340,-0.6045,0.0420,-0.4945,0.782
15.5390,-0.6166,0.1929,-0.5309,0.836
15.5440,-0.6412,0.2587,-0.5143,0.862
15.5490,-0.6885,0.2492,-0.4479,0.858
15.5540,-0.7042,0.2264,-0.3726,0.828
15.5610,-0.6998,0.2835,-0.2715,0.802
15.5630,-0.7563,0.2889,-0.1104,0.817
15.5680,-1.0308,-0.1564,0.1395,1.052
15.5730,-1.5378,-1.3365,0.7888,2.185
15.5770,-0.8453,-0.2215,1.2848,1.554
15.5830,-0.5185,0.3719,1.2911,1.440
15.5880,-0.6695,0.2415,1.0754,1.290
15.5920,-0.9338,-0.1337,0.9727,1.355
15.5990,-0.9592,-0.2807,1.0773,1.470
15.6030,-0.7968,-0.1959,1.2603,1.504
15.6080,-0.6725,-0.0784,1.3827,1.540
15.6130,-0.5838,-0.0623,1.4065,1.524
15.6170,-0.4968,-0.0729,1.4394,1.524
15.6220,-0.3874,-0.1314,1.5382,1.592
15.6260,-0.3115,-0.1826,1.5970,1.637
15.6310,-0.2193,-0.2333,1.5958,1.628
15.6360,-0.1326,-0.2641,1.4814,1.511
15.6410,-0.0179,-0.2385,1.3085,1.330
15.6450,0.0918,-0.2259,1.1011,1.128
15.6500,0.1565,-0.2260,0.8932,0.935
15.6560,0.2080,-0.2028,0.7640,0.817
15.6600,0.2513,-0.2329,0.6898,0.770
15.6650,0.2507,-0.2134,0.6515,0.730
15.6700,0.2537,-0.2139,0.6442,0.725
15.6750,0.2410,-0.1910,0.6029,0.677
15.6790,0.2147,-0.1923,0.5318,0.605
15.6850,0.1219,-0.2100,0.0976,0.262
15.6890,0.1520,-0.0605,-1.2644,1.275
15.6940,0.1976,0.1290,-1.7147,1.731
15.6990,0.2473,0.1301,-1.9245,1.945
15.7040,0.3852,0.0852,-1.7973,1.840
15.7090,0.5055,0.0400,-1.4728,1.558
15.7130,0.5165,-0.0099,-1.1298,1.242
15.7200,0.4506,-0.0763,-0.8889,0.999
15.7230,0.3981,-0.1427,-0.8266,0.929
15.7280,0.2348,-0.2139,-0.8522,0.909
15.7340,0.3577,-0.1059,-0.8147,0.896
15.7380,0.4302,-0.1177,-0.7254,0.852
15.7440,0.3718,-0.2541,-0.5095,0.680
15.7480,0.2807,-0.3983,-0.1618,0.513
15.7530,0.1921,-0.5483,0.1960,0.613
15.7570,0.0892,-0.5468,0.5066,0.751
15.7630,-0.0163,-0.4804,0.7012,0.850
15.7680,-0.0770,-0.4668,0.8092,0.937
15.7720,-0.1239,-0.5541,0.8360,1.011
15.7760,-0.1307,-0.6014,0.7580,0.976
15.7810,-0.1139,-0.5611,0.5546,0.797
15.7870,-0.0537,-0.5122,0.3650,0.631
15.7910,0.0075,-0.5001,0.2925,0.579
15.7960,0.0914,-0.5460,0.3705,0.666
15.8010,0.0571,-0.6142,0.5105,0.801
15.8060,-0.1103,-0.5275,0.5274,0.754
15.8110,-0.2368,-0.3697,0.4591,0.635
15.8160,-0.4035,-0.2264,0.3458,0.578
15.8200,-0.4720,-0.1192,0.2519,0.548
15.8260,-0.5118,-0.1125,0.2130,0.566
15.8300,-0.4875,-0.1468,0.2125,0.552
15.8360,-0.4014,-0.2052,0.2503,0.516
15.8400,-0.2916,-0.2446,0.3600,0.524
15.8440,-0.1458,-0.2337,0.5488,0.614
15.8490,-0.0475,-0.2470,0.7286,0.771
15.8540,0.1085,-0.2796,0.8445,0.896
15.8590,0.2172,-0.3390,0.8445,0.936
15.8630,0.2834,-0.4130,0.8004,0.944
15.8690,0.3477,-0.4562,0.7599,0.952
15.8730,0.3047,-0.4515,0.6553,0.852
15.8780,0.2425,-0.4129,0.5452,0.726
15.8830,0.2182,-0.3591,0.3953,0.577
15.8880,0.1622,-0.2923,0.2123,0.396
15.8930,0.1008,-0.2649,0.0173,0.284
15.8970,0.0387,-0.2839,-0.0992,0.303
15.9040,-0.0192,-0.2488,-0.1610,0.297
15.9070,-0.0607,-0.1573,-0.2277,0.283
15.9120,-0.1144,-0.0792,-0.2510,0.287
15.9170,-0.2160,-0.0528,-0.2448,0.331
15.9220,-0.3412,-0.0089,-0.2278,0.410
15.9260,-0.4209,0.0832,-0.2808,0.513
15.9310,-0.3977,0.2518,-0.5013,0.688
15.9360,-0.2312,0.4224,-0.8719,0.996
15.9410,-0.1268,0.3561,-1.1125,1.175
15.9460,0.0572,0.1971,-1.1234,1.142
15.9510,0.2987,0.0442,-1.0017,1.046
15.9560,0.4348,-0.1116,-0.8730,0.982
15.9600,0.5372,-0.2773,-0.7786,0.986
