time,ax,ay,az,aT
0.008,0.542,-0.667,0.2171,0.886
0.008,0.527,-0.6807,0.2757,0.904
0.008,0.5021,-0.6684,0.3755,0.916
0.009,0.4525,-0.6666,0.4738,0.935
0.013,0.3687,-0.6325,0.5376,0.908
0.019,0.3101,-0.6313,0.5432,0.889
0.024,0.284,-0.5962,0.5076,0.833
0.034,0.2567,-0.556,0.4907,0.785
0.034,0.2188,-0.5088,0.4977,0.745
0.037,0.1585,-0.45,0.5501,0.728
0.048,0.1141,-0.3993,0.5719,0.707
0.049,0.0448,-0.3186,0.5251,0.616
0.052,-0.6685,-0.0558,0.8546,1.086
0.057,-0.042,-0.2,0.5019,0.542
0.061,0.2878,-0.2318,0.2664,0.456
0.067,0.2967,-0.2462,0.1717,0.422
0.072,0.1257,-0.2424,0.1809,0.328
0.078,-0.0236,-0.2869,0.1308,0.316
0.08,-0.1634,-0.723,-0.3854,0.835
0.087,-0.0129,-0.672,-0.3952,0.78
0.09,0.1658,-0.5571,-0.4398,0.729
0.096,0.2363,-0.4472,-0.4933,0.707
0.1,0.3019,-0.3782,-0.3954,0.625
0.105,0.296,-0.3427,-0.2322,0.509
0.11,0.2256,-0.3581,-0.1207,0.44
0.115,0.1287,-0.3816,-0.0509,0.406
0.119,0.0843,-0.402,-0.0341,0.412
0.129,0.0467,-0.3597,-0.0155,0.363
0.13,0.0208,-0.3006,0.0128,0.302
0.134,-0.0053,-0.2371,0.0604,0.245
0.139,-0.0486,-0.1599,0.1322,0.213
0.146,-0.0946,-0.1029,0.1999,0.244
0.149,-0.1221,-0.0565,0.2083,0.248
0.153,-0.1647,-0.0138,0.2367,0.289
0.159,-0.1697,-0.0037,0.1824,0.249
0.163,-0.1655,-0.0358,0.1722,0.242
0.168,-0.1906,-0.0527,0.1034,0.223
0.173,-0.2256,-0.0401,0.0166,0.23
0.178,-0.2707,-0.0504,-0.1266,0.303
0.182,-0.2948,-0.0448,-0.2882,0.415
0.187,-0.2983,-0.0204,-0.4925,0.576
0.192,-0.2881,-0.0005,-0.6754,0.734
0.197,-0.2566,0.0158,-0.8348,0.873
0.202,-0.2611,0.0645,-0.9303,0.968
0.208,-0.256,0.0816,-0.9934,1.029
0.211,-0.2697,0.0909,-0.95,0.992
0.217,-0.2494,0.0804,-0.8789,0.917
0.221,-0.1733,0.0831,-0.7918,0.815
0.231,-0.063,0.0918,-0.6981,0.707
0.231,0.0198,0.101,-0.5903,0.599
0.236,0.0733,0.1483,-0.4678,0.496
0.247,0.143,0.2023,-0.3137,0.4
0.248,0.1331,0.1404,-0.154,0.247
0.251,0.1096,0.0654,-0.0294,0.131
0.256,0.0957,0.0607,-0.0043,0.113
0.261,0.096,0.1116,-0.0976,0.177
0.266,0.1631,0.2155,-0.2637,0.378
0.27,0.1865,0.3656,-0.4334,0.597
0.275,0.1472,0.5168,-0.6046,0.809
0.28,0.0741,0.6957,-0.7394,1.018
0.284,0.032,0.8384,-0.8308,1.181
0.289,-0.0127,0.9409,-0.9297,1.323
0.294,-0.0357,1.0107,-0.9955,1.419
0.299,0.0089,1.008,-1.0932,1.487
0.304,0.1001,0.9453,-1.168,1.506
0.31,0.2073,0.8492,-1.1842,1.472
0.315,0.2069,0.8156,-1.1227,1.403
0.319,0.1637,0.813,-1.0696,1.353
0.323,0.1302,0.7816,-0.9888,1.267
0.328,0.1228,0.6617,-0.8518,1.086
0.333,0.1801,0.3959,-0.68,0.807
0.337,0.4672,0.0036,-0.5881,0.751
0.346,0.6255,-0.1658,-0.4592,0.793
0.347,0.7453,-0.1439,-0.3814,0.849
0.352,0.7742,-0.2303,-0.2708,0.852
0.357,0.4776,-0.285,-0.1291,0.571
0.362,0.6238,-0.1488,0.0203,0.642
0.367,1.1875,-0.0256,0.0967,1.192
0.371,1.5709,0.0156,0.2387,1.589
0.377,1.8103,-0.1976,0.3986,1.864
0.382,2.5253,-1.2261,0.5024,2.852
0.386,3.3779,-2.9881,0.2788,4.518
0.391,3.6386,-3.4067,0.7204,5.036
0.396,3.6893,-3.6462,1.4527,5.387
0.4,3.4997,-3.68,1.8442,5.403
0.405,3.5385,-3.5441,1.9137,5.361
0.412,3.3579,-3.3958,1.8255,5.113
0.415,3.2523,-3.1042,1.5295,4.749
0.42,3.6787,-2.7551,0.557,4.63
0.431,2.576,-2.2636,0.1781,3.434
0.431,1.5656,-1.8923,0.6614,2.543
0.435,1.0402,-1.8053,0.6899,2.195
0.44,0.4835,-1.5114,0.5284,1.673
0.448,-0.3748,-0.8322,0.6782,1.137
0.449,-1.2953,-0.3686,1.074,1.723
0.454,-1.9696,-0.1375,1.3677,2.402
0.459,-2.3035,-0.0859,1.8557,2.959
0.464,-2.0721,-0.1438,1.96,2.856
0.469,-1.7701,-0.0472,1.8779,2.581
0.474,-1.0198,0.2373,1.8414,2.118
0.479,-0.8872,0.3605,1.9982,2.216
0.484,-0.9231,0.5047,2.3257,2.553
0.489,-0.9044,0.5932,2.6177,2.832
0.494,-0.8717,0.4544,2.7211,2.893
0.5,-0.5017,0.0765,2.6171,2.666
0.504,-0.0694,0.2009,2.2556,2.266
0.511,0.2186,0.2919,1.8547,1.89
0.515,0.3542,0.2277,1.558,1.614
0.517,0.4316,0.1723,1.2863,1.368
0.521,0.5179,0.2058,1.0799,1.215
0.528,0.6079,0.3326,0.8853,1.124
0.532,0.6076,0.4275,0.6709,1.001
0.536,0.5466,0.5145,0.3903,0.846
0.541,0.4674,0.5857,0.0043,0.749
0.557,0.6823,0.9393,0.0191,1.161
0.558,-0.3107,1.0596,-0.38,1.168
0.558,-0.6004,0.9004,-0.9347,1.43
0.6,-0.1484,0.9001,-1.5582,1.806
0.6,0.148,0.8588,-2.1447,2.315
0.601,0.0622,0.8604,-2.3329,2.487
0.601,0.1256,1.0407,-2.1662,2.406
0.602,0.1445,1.2345,-1.8103,2.196
0.602,0.2801,1.6444,-1.4166,2.188
0.603,0.4354,1.9354,-1.0432,2.241
0.603,0.4698,2.0576,-0.8339,2.269
0.603,0.4119,1.9872,-0.7621,2.168
0.604,0.3163,1.7002,-0.8223,1.915
0.611,0.2052,1.368,-0.8653,1.632
0.616,0.0659,1.1098,-0.8736,1.414
0.621,-0.0492,0.9604,-0.7705,1.232
0.623,-0.1822,0.8233,-0.5179,0.99
0.629,-0.1868,0.7457,-0.2596,0.811
0.633,-0.0448,0.5787,-0.0574,0.583
0.638,0.2719,0.4408,0.1181,0.531
0.648,0.5634,0.3682,0.2947,0.735
0.648,0.7601,0.2905,0.4394,0.925
0.653,0.717,0.22,0.5065,0.905
0.658,0.5421,0.1689,0.4884,0.749
0.668,0.396,0.169,0.4704,0.638
0.668,0.3401,0.1893,0.4119,0.567
0.672,0.3407,0.2474,0.3914,0.575
0.678,0.5756,0.3909,0.3781,0.792
0.682,0.7037,0.4959,0.3767,0.94
0.689,0.5597,0.4909,0.5,0.897
0.691,0.242,0.6101,0.5306,0.844
0.696,0.1911,0.0059,0.4519,0.491
0.701,0.6009,-0.9101,0.5632,1.227
0.706,0.8325,-0.991,0.6235,1.437
0.711,0.5196,-0.9968,0.537,1.246
0.715,0.2657,-1.128,0.5709,1.292
0.72,0.1773,-1.1341,0.6909,1.34
0.732,0.1252,-1.1207,0.7462,1.352
0.734,0.1268,-1.1767,0.7227,1.387
0.736,0.2404,-1.1895,0.7065,1.404
0.741,0.393,-1.2021,0.7577,1.474
0.77,0.5302,-1.1618,0.8643,1.542
0.771,0.538,-1.0397,0.9377,1.5
0.771,0.5095,-0.9853,0.8677,1.408
0.772,0.6274,-0.9769,0.6715,1.341
0.773,0.6375,-0.8617,0.4331,1.156
0.773,0.4066,-0.7117,0.3081,0.876
0.775,0.1305,-0.6438,0.2267,0.695
0.78,-0.0865,-0.5714,0.1458,0.596
0.784,-0.2505,-0.5084,0.0531,0.569
0.793,-0.3027,-0.4568,-0.0541,0.551
0.793,-0.2887,-0.4072,-0.0944,0.508
0.801,-0.1748,-0.4073,-0.0512,0.446
0.805,-0.0445,-0.4144,0.0613,0.421
0.81,0.0472,-0.4068,0.2405,0.475
0.814,0.134,-0.3582,0.374,0.535
0.818,0.1972,-0.2466,0.4093,0.517
0.823,0.2081,-0.077,0.3968,0.455
0.832,0.1809,0.1193,0.3818,0.439
0.834,0.1604,0.2799,0.3452,0.472
0.839,0.0885,0.3857,0.2894,0.49
0.861,0.0073,0.5055,0.2023,0.545
0.861,-0.0292,0.5531,0.1698,0.579
0.862,0.019,0.5641,0.2781,0.629
0.862,0.0871,0.5433,0.4144,0.689
0.862,0.168,0.4834,0.5885,0.78
0.867,0.1788,0.4703,0.8362,0.976
0.872,0.1825,0.4723,1.1459,1.253
0.878,0.1479,0.5106,1.3978,1.495
0.883,0.1924,0.486,1.4538,1.545
0.885,0.3371,0.424,1.3429,1.448
0.891,0.3998,0.3363,1.1729,1.284
0.897,0.4234,0.2494,1.0249,1.137
0.902,0.4959,0.1921,0.899,1.045
0.906,0.5056,0.1768,0.855,1.009
0.912,0.5746,0.0938,0.8687,1.046
0.916,0.5549,0.0993,0.8614,1.029
0.919,0.5978,0.1032,0.754,0.968
0.924,0.6753,0.1897,0.6184,0.935
0.931,0.7599,0.2204,0.5431,0.96
0.934,0.8337,0.1812,0.4494,0.964
0.939,0.9015,0.0624,0.3683,0.976
0.958,0.8992,-0.086,0.2807,0.946
0.958,0.9336,-0.2376,0.2105,0.986
0.959,0.9496,-0.3396,0.2149,1.031
0.959,1.04,-0.2921,0.2963,1.12
0.976,1.2175,-0.1793,0.4524,1.311
0.977,1.524,-0.1402,0.6066,1.646
0.977,1.6857,-0.0792,0.7543,1.848
0.978,1.7275,0.0466,0.8668,1.933
0.983,1.6622,0.2735,0.9728,1.945
0.988,1.566,0.4686,0.95,1.891
0.995,1.3718,0.4512,0.7484,1.626
0.998,1.1159,0.3174,0.4324,1.238
1.003,0.7659,0.2878,0.1815,0.838
1.01,0.3048,0.4075,0.0384,0.51
1.016,-0.1741,0.6285,-0.0136,0.652
1.017,-0.5425,0.7998,-0.1757,0.982
1.021,-0.6933,0.845,-0.4286,1.174
1.032,-0.7455,0.781,-0.6886,1.281
1.032,-0.819,0.6945,-0.7695,1.321
1.035,-0.8291,0.6836,-0.6738,1.268
1.04,-0.727,0.6925,-0.5138,1.128
1.049,-0.5118,0.6657,-0.3254,0.901
1.051,-0.3234,0.5572,-0.1538,0.662
1.055,-0.1519,0.3164,-0.0395,0.353
1.061,-0.0231,0.0528,0.025,0.063
1.069,0.0893,-0.1836,0.145,0.25
1.07,0.2381,-0.3551,0.2989,0.522
1.077,0.3488,-0.4978,0.3936,0.724
1.08,0.448,-0.6553,0.3577,0.871
1.085,0.522,-0.7559,0.2223,0.945
1.089,0.5192,-0.7493,0.0714,0.914
1.094,0.5793,-0.6804,-0.0858,0.898
1.099,0.6692,-0.6257,-0.2228,0.943
1.104,0.7581,-0.6105,-0.3734,1.043
1.109,0.8634,-0.6122,-0.5307,1.184
1.115,0.8754,-0.7014,-0.6711,1.307
1.119,0.7151,-0.7919,-0.8376,1.356
1.123,0.6162,-0.7514,-1.0018,1.396
1.145,0.5126,-0.5847,-1.0514,1.308
1.148,0.3257,-0.4594,-1.0918,1.228
1.148,0.116,-0.3774,-1.1709,1.236
1.149,-0.1126,-0.3508,-1.2576,1.31
1.151,-0.3513,-0.3262,-1.3498,1.432
1.152,-0.5215,-0.2939,-1.4141,1.536
1.157,-0.549,-0.3488,-1.3767,1.523
1.172,-0.5148,-0.4313,-1.2473,1.417
1.173,-0.4159,-0.5392,-1.0019,1.211
1.173,-0.3236,-0.6514,-0.6932,1.005
1.18,-0.1968,-0.7091,-0.3401,0.811
1.181,-0.0051,-0.7255,-0.045,0.727
1.186,0.1507,-0.747,0.1781,0.783
1.192,0.2557,-0.82,0.3177,0.916
1.197,0.2262,-0.8805,0.4218,1.002
1.2,0.1746,-0.9263,0.4405,1.04
1.205,0.0514,-0.9146,0.4551,1.023
1.211,-0.0591,-0.8286,0.3797,0.913
1.215,-0.1729,-0.7206,0.2645,0.787
1.219,-0.2115,-0.6049,0.0832,0.646
1.224,-0.1956,-0.5408,-0.1141,0.586
1.231,-0.2107,-0.5443,-0.2774,0.646
1.235,-0.179,-0.5736,-0.4404,0.745
1.239,-0.1784,-0.5178,-0.5606,0.784
1.256,-0.17,-0.4271,-0.5568,0.722
1.257,-0.256,-0.4949,-0.9049,1.063
1.258,-0.347,-0.4503,-1.3729,1.486
1.29,-0.3615,-0.4094,-0.5319,0.762
1.291,-0.4526,-0.4519,0.2044,0.671
1.291,-0.4231,-0.4283,-0.055,0.605
1.292,-0.2774,-0.4375,-0.503,0.722
1.292,-0.1947,-0.4267,-0.5279,0.706
1.293,-0.1665,-0.4413,-0.3618,0.594
1.293,-0.2253,-0.3619,-0.3157,0.53
1.3,-0.2639,-0.2602,-0.3822,0.532
1.301,-0.284,-0.1341,-0.3796,0.493
1.302,-0.2925,-0.0552,-0.253,0.391
1.308,-0.3417,-0.0501,-0.0956,0.358
1.313,-0.4029,-0.074,-0.0291,0.411
1.317,-0.3948,-0.1275,0.0233,0.416
1.321,-0.4326,-0.1156,0.0165,0.448
1.333,-0.4399,-0.0938,-0.0014,0.45
1.334,-0.5124,-0.0578,0.0127,0.516
1.336,-0.5564,-0.0362,0.0946,0.566
1.341,-0.5597,-0.0431,0.2609,0.619
1.358,-0.4619,-0.098,0.3396,0.582
1.359,-0.233,-0.1767,0.2709,0.399
1.36,0.095,-0.1738,0.1649,0.258
1.369,0.2691,-0.1587,0.0384,0.315
1.37,0.3061,-0.136,-0.0801,0.344
1.37,0.2573,-0.1222,-0.2312,0.367
1.376,0.1977,-0.1118,-0.4317,0.488
1.38,0.1286,-0.0633,-0.6605,0.676
1.386,0.1381,-0.0458,-0.8818,0.894
1.389,0.1495,-0.0199,-1.0387,1.05
1.397,0.1003,-0.0371,-1.2272,1.232
1.4,0.0766,0.0086,-1.3498,1.352
1.404,0.021,0.0958,-1.3923,1.396
1.414,-0.0262,0.1936,-1.4027,1.416
1.417,-0.0601,0.2327,-1.3334,1.355
1.422,-0.0327,0.2537,-1.1531,1.181
1.424,-0.0039,0.3539,-0.9838,1.046
1.43,0.0053,0.4201,-0.9088,1.001
1.436,0.0006,0.4686,-0.844,0.965
1.438,0.0299,0.4633,-0.744,0.877
1.454,0.0788,0.4351,-0.6709,0.803
1.455,0.142,0.52,-0.6722,0.862
1.455,0.1296,0.4691,-0.6642,0.823
1.459,0.0113,0.4306,-0.4914,0.654
1.486,-0.0598,0.3995,-0.4194,0.582
1.487,-0.0836,0.4018,-0.5242,0.666
1.487,-0.1488,0.4708,-0.6026,0.779
1.488,-0.2108,0.5923,-0.6162,0.88
1.488,-1.1548,0.6444,-0.0611,1.324
1.489,-2.2478,0.979,0.9017,2.612
1.491,-0.4862,1.2357,-0.6838,1.494
1.497,-0.3969,1.2525,-1.4201,1.935
1.501,-0.4664,0.9122,-1.5159,1.83
1.505,-0.0722,0.145,-1.3143,1.324
1.511,0.5609,-0.4709,-0.2706,0.781
1.515,1.1815,-0.7263,1.0589,1.745
1.521,1.6764,-0.8492,1.8495,2.637
1.525,1.7611,-0.7694,1.7096,2.572
1.53,1.4958,-0.4899,1.0316,1.882
1.535,0.9874,-0.083,0.1142,0.997
1.54,0.376,0.3905,-0.6511,0.847
1.563,-0.6133,0.8835,-1.0617,1.511
1.567,-1.2546,1.199,-1.3958,2.227
1.568,-1.7756,1.5624,-1.5033,2.802
1.569,-1.8646,1.7799,-1.3224,2.897
1.57,-1.6002,1.7873,-1.1308,2.652
1.57,-1.3065,1.6954,-0.9769,2.353
1.573,-0.8349,1.5716,-0.9085,1.998
1.593,-0.8542,1.4443,-0.7128,1.823
1.593,-0.4085,1.2653,-0.5644,1.444
1.594,-0.2527,1.0722,-0.3623,1.16
1.594,-0.3133,0.9679,-0.3793,1.086
1.599,-0.4925,0.9451,-0.3596,1.125
1.604,-0.7494,1.028,-0.3893,1.33
1.609,-1.0973,1.2231,-0.3916,1.689
1.617,-1.1321,1.3717,-0.4236,1.828
1.617,-1.0544,1.3891,-0.3818,1.785
1.622,-0.9834,1.3295,-0.2015,1.666
1.627,-1.0474,1.2359,-0.1119,1.624
1.632,-0.9616,0.8765,0.1356,1.308
1.636,-0.4111,0.4646,0.3445,0.71
1.641,-0.1255,0.2393,0.3573,0.448
1.654,0.0846,0.1245,0.3626,0.393
1.655,0.2405,0.1034,0.296,0.395
1.658,0.1038,0.2287,0.2386,0.346
1.662,-0.1287,0.4905,0.1763,0.537
1.678,-0.282,0.7454,0.085,0.802
1.678,-0.3345,0.8239,0.0128,0.889
1.678,-0.3794,0.7715,0.0454,0.861
1.68,-0.3309,0.6746,0.1064,0.759
1.685,-0.1246,0.5451,0.0714,0.564
1.69,-0.2735,0.5245,-0.1456,0.609
1.696,-0.4385,0.3329,0.1917,0.583
1.7,-0.146,0.1449,0.179,0.273
1.704,-0.0244,-0.0039,0.209,0.21
1.709,-0.008,-0.0131,0.2506,0.251
1.714,-0.0489,0.0881,0.3253,0.341
1.718,-0.0802,0.2301,0.3426,0.42
1.723,-0.066,0.1163,0.3407,0.366
1.731,-0.2191,0.2662,0.3003,0.457
1.733,-0.3412,0.5071,0.3912,0.726
1.738,-0.4116,0.7479,0.36,0.926
1.743,-0.337,0.8234,0.2833,0.934
1.748,-0.282,0.8656,0.1302,0.92
1.752,-0.3107,0.8846,0.0152,0.938
1.757,-0.3296,0.9164,0.0243,0.974
1.762,-0.1932,0.6099,0.1572,0.659
1.767,-0.2675,0.8065,0.3398,0.915
1.772,-0.3762,0.9219,0.4789,1.105
1.777,-0.3669,0.9366,0.5724,1.157
1.782,-0.2489,0.9029,0.4747,1.05
1.786,-0.2981,0.8946,0.4254,1.034
1.791,-0.457,0.8428,0.4983,1.08
1.796,-0.4754,0.7688,0.5213,1.043
1.801,-0.4213,0.754,0.4319,0.966
1.805,-0.3592,0.844,0.2543,0.952
1.811,-0.3651,0.9578,0.2058,1.045
1.816,-0.3964,1.0308,0.186,1.12
1.82,-0.384,1.0946,0.1228,1.166
1.825,-0.3253,1.1562,0.1191,1.207
1.83,-0.2371,1.2327,0.139,1.263
1.835,-0.1431,1.2784,0.2447,1.309
1.839,0.0518,1.1759,0.1636,1.188
1.848,0.291,1.0786,0.2497,1.145
1.849,0.6008,0.9001,0.5724,1.224
1.854,0.8943,0.7118,0.8565,1.428
1.859,1.0756,0.4797,1.2217,1.697
1.864,1.204,0.3095,1.3046,1.802
1.869,1.2913,0.424,0.9186,1.64
1.874,1.213,0.6951,0.4371,1.465
1.878,0.9356,0.7704,0.531,1.323
1.884,0.7657,0.7365,0.3844,1.13
1.888,0.7618,0.6542,-0.0266,1.005
1.893,0.7079,0.5769,-0.4843,1.034
1.898,0.514,0.4934,-0.647,0.962
1.903,0.3715,0.5472,-1.2082,1.377
1.907,0.3342,0.6166,-1.5886,1.736
1.913,0.3706,0.6572,-1.815,1.966
1.917,0.3335,0.5113,-1.3615,1.492
1.922,0.5479,0.2841,-0.9556,1.138
1.931,0.7937,-0.0875,-0.4867,0.935
1.932,1.1838,-0.8633,-0.0123,1.465
1.937,1.2363,-1.6554,0.827,2.225
1.942,1.6697,-2.5175,1.5061,3.376
1.948,1.6797,-2.6177,2.2025,3.811
1.951,1.2236,-2.1496,2.7568,3.704
1.956,0.2972,-1.8072,3.0646,3.57
1.963,-2.6015,0.8525,3.1645,4.184
1.966,-7.4047,6.5927,2.7803,10.297
1.972,-7.1259,6.0876,0.2823,9.376
1.975,-5.1369,4.3065,-2.0133,6.999
1.98,-1.6464,2.5778,-3.6549,4.766
1.985,0.7782,1.5018,-4.1072,4.442
1.99,1.9533,1.1655,-3.0438,3.8
1.995,1.5854,0.7397,-0.6646,1.871
2,0.3245,-0.0318,0.9701,1.023
2.004,-0.5144,-0.9682,1.4572,1.824
2.009,-0.4209,-2.0937,1.4083,2.558
2.015,0.1555,-3.0182,0.7066,3.104
2.019,1.0765,-3.0602,-0.1013,3.246
2.024,1.9872,-2.4042,-0.7229,3.202
2.031,2.3638,-1.6321,-0.797,2.981
2.033,2.2183,-1.072,-0.5204,2.518
2.038,1.7175,-0.8636,-0.2454,1.938
2.043,1.3308,-0.917,-0.0485,1.617
2.048,1.228,-1.1068,-0.1614,1.661
2.053,1.2392,-1.271,-0.4541,1.832
2.057,1.1103,-1.2103,-0.5072,1.719
2.063,0.8622,-0.898,-0.2417,1.268
2.069,0.6154,-0.7975,0.2275,1.033
2.074,0.2327,-1.0063,0.6567,1.224
2.078,-0.0413,-1.2985,0.9051,1.583
2.083,0.6582,-1.0998,1.4414,1.929
2.087,0.3474,-1.3132,1.7394,2.207
2.092,0.3142,-1.4894,2.043,2.548
2.097,0.4763,-1.6491,2.3117,2.879
2.101,0.6616,-1.7979,2.3948,3.067
2.106,0.8831,-2.0247,2.3047,3.192
2.111,1.0378,-2.3476,2.0435,3.281
2.116,1.0506,-2.3479,1.4655,2.96
2.121,0.8842,-2.0617,0.7667,2.371
2.125,0.6117,-1.8241,0.1141,1.927
2.131,0.3505,-1.7025,-0.3322,1.77
2.135,0.2037,-1.4708,-0.4579,1.554
2.141,0.0938,-1.0243,-0.2611,1.061
2.149,-0.0378,-0.529,0.0476,0.533
2.15,-0.2438,-0.1066,0.3416,0.433
2.154,-0.4749,0.2466,0.547,0.765
2.16,-0.6666,0.6564,0.6425,1.135
2.169,-0.7956,1.1654,0.6976,1.574
2.169,-0.8905,1.5933,0.8415,2.01
2.175,-1.0019,1.8458,0.914,2.29
2.257,-1.096,2.0922,0.908,2.53
2.257,-1.1479,2.2508,0.8549,2.667
2.258,-1.1158,2.3289,0.8718,2.726
2.258,-1.0104,2.3767,1.0018,2.77
2.258,-0.9009,2.2485,1.2209,2.713
2.258,-0.9015,1.9607,1.3523,2.547
2.259,-0.1846,1.9864,1.6234,2.572
2.259,0.0018,1.641,1.8022,2.437
2.259,0.0821,1.4224,1.7194,2.233
2.259,0.2022,1.3329,1.4614,1.988
2.259,0.3007,1.6285,1.2246,2.06
2.259,0.056,3.2926,1.0256,3.449
2.26,0.0274,4.4396,0.4383,4.461
2.26,2.0505,2.9055,-0.1797,3.561
2.26,0.3417,0.1279,-0.96,1.027
2.26,-1.3708,-0.6619,-0.686,1.67
2.26,-1.4404,-0.4016,-0.2903,1.523
2.262,-1.3131,-0.8106,0.3567,1.584
2.266,-1.5551,-1.3685,1.073,2.333
2.271,-1.3643,-1.1672,1.3483,2.245
2.275,-0.875,-0.5691,1.2045,1.594
2.282,-0.5079,-0.1439,0.9888,1.121
2.285,-0.4246,-0.0173,1.0194,1.104
2.29,-0.3835,0.0227,1.0766,1.143
2.299,-0.3604,0.0134,0.972,1.037
2.3,-0.3461,-0.0583,0.7107,0.793
2.305,-0.1593,0.2854,0.6585,0.735
2.31,-0.3031,0.7939,1.0652,1.363
2.315,-1.2309,-0.2615,0.5362,1.368
2.32,-0.9627,-0.9925,-0.0778,1.385
2.324,-0.1662,-0.8721,-0.9237,1.281
2.329,0.3076,-0.3641,-1.3701,1.451
2.335,0.0175,0.1271,-1.1069,1.114
2.338,-0.6004,0.3738,-0.3658,0.796
2.344,-0.8662,0.4099,0.4194,1.046
2.348,-0.6768,0.1371,0.9854,1.203
2.353,-0.1673,-0.4052,0.922,1.021
2.358,0.3844,-0.8708,0.3335,1.009
2.363,0.6662,-0.9936,-0.3658,1.251
2.368,0.6787,-0.8769,-0.8341,1.388
2.373,-0.2904,0.015,-1.0531,1.093
2.377,-0.2708,0.2527,-1.1569,1.215
2.382,0.2167,-0.0705,-1.4472,1.465
2.388,0.7288,-0.434,-2.008,2.18
2.392,0.9535,-0.8095,-2.4669,2.766
2.398,1.1802,-1.2959,-1.8872,2.576
2.402,1.1702,-1.801,-1.5865,2.67
2.407,0.9666,-1.5029,-0.7219,1.927
2.412,0.6056,-0.9428,-0.3261,1.167
2.417,0.6543,-0.4875,-0.6179,1.023
2.423,1.2653,-0.4934,-1.0393,1.71
2.427,1.7564,-0.8475,-1.4399,2.424
2.432,1.708,-1.1453,-1.022,2.296
2.437,1.18,-0.5171,-0.3197,1.327
2.443,-0.3096,0.2911,0.2905,0.515
2.446,-1.6599,0.9283,-0.0929,1.904
2.451,-1.8211,1.1011,-0.5332,2.194
2.455,-0.8587,0.7756,0.147,1.166
2.461,-0.268,0.3474,-0.7651,0.882
2.465,-0.0144,-0.283,-1.0964,1.132
2.471,-0.0887,-0.8729,-0.61,1.069
2.475,-0.3162,-1.2117,-0.1073,1.257
2.479,-0.3743,-1.3525,0.2043,1.418
2.484,-0.3144,-1.4363,0.5179,1.559
2.49,0.2522,-1.1943,0.9743,1.562
2.495,0.916,-0.56,1.5572,1.891
2.5,1.6681,-0.0414,1.8169,2.467
2.504,2.4096,0.0827,1.4385,2.808
2.509,3.2564,-0.1895,0.7672,3.351
2.514,3.9653,-0.5031,0.2396,4.004
2.527,3.9683,0.0127,-0.1418,3.971
2.528,3.9238,-0.0069,-0.3973,3.944
2.53,3.6006,-0.1635,-0.5674,3.649
2.533,2.9326,-0.1643,-0.7621,3.034
2.538,2.264,-0.4804,-1.0207,2.529
2.542,1.1892,-0.2762,-1.3717,1.836
2.547,0.4398,-0.3217,-1.957,2.031
2.552,0.0959,-0.6985,-2.3614,2.464
2.557,-0.0271,-1.1354,-2.6242,2.859
2.562,-0.4158,-0.9651,-2.623,2.826
2.567,-0.2667,-0.9602,-2.8367,3.007
2.572,0.2841,-1.1009,-3.2556,3.448
2.576,1.5911,-1.6169,-4.0104,4.607
2.581,2.0179,-1.7006,-4.159,4.926
2.587,1.2151,-1.308,-3.6625,4.074
2.591,0.6342,-1.2237,-3.074,3.369
2.596,0.7967,-1.4618,-2.8059,3.263
2.603,1.2978,-1.3886,-2.6967,3.299
2.605,1.4879,-0.983,-2.3603,2.958
2.611,1.6549,-0.7669,-1.9582,2.676
2.615,1.8684,-0.5873,-1.5856,2.52
2.62,1.8443,-0.3339,-0.9002,2.079
2.625,1.6198,-0.1782,-0.4153,1.682
2.63,1.0536,0.0603,0.0075,1.055
2.635,0.7526,0.1171,0.3077,0.821
2.641,0.884,0.0604,0.0251,0.886
2.645,0.3397,0.5767,0.0082,0.669
2.65,-0.119,0.5297,-0.3082,0.624
2.655,-0.7098,0.5819,-0.2639,0.955
2.659,-1.1144,0.0866,0.2326,1.142
2.664,-1.2225,0.0599,-0.1198,1.23
2.67,-0.8485,0.1417,-0.54,1.016
2.674,-0.5386,0.092,-0.7909,0.961
2.678,-0.3175,-0.0209,-0.9181,0.972
2.683,-0.3353,0.0335,-0.9287,0.988
2.688,-0.267,-0.0293,-0.9286,0.967
2.693,-0.0884,0.0632,-0.9078,0.914
2.697,0.1215,0.0907,-0.8542,0.868
2.702,0.2988,0.0113,-0.9409,0.987
2.707,0.4123,0.0908,-0.9942,1.08
2.713,0.3828,0.1878,-0.9718,1.061
2.717,0.2291,0.3625,-0.8665,0.967
2.721,0.1116,0.413,-0.9031,0.999
2.726,-0.0706,0.3087,-0.9948,1.044
2.731,-0.6256,-0.0222,-0.5349,0.823
2.736,-1.4127,-0.6894,0.4261,1.629
2.741,-2.0919,-1.1308,0.858,2.528
2.746,-1.5991,-0.3784,0.1598,1.651
2.75,-0.5884,0.4165,-0.6374,0.962
2.755,-0.3117,0.7498,0.5784,0.997
2.76,-1.5724,0.6215,5.3176,5.58
2.765,-2.6816,-0.2108,7.015,7.513
2.771,-2.2047,-0.7286,3.6315,4.31
2.775,-1.1548,-0.5463,1.9643,2.343
2.78,-1.4296,-0.1862,1.8778,2.367
2.785,-2.4713,0.036,1.1587,2.73
2.79,-2.7856,0.0898,-0.114,2.789
2.794,-1.6544,-0.1047,-0.8113,1.846
2.799,-0.9701,-0.1,-0.8257,1.278
2.804,-1.2485,-0.0853,-0.2972,1.286
2.811,-1.6017,-0.0568,0.2468,1.622
2.815,-1.4371,-0.0948,0.3906,1.492
2.819,-1.3332,-0.173,0.2839,1.374
2.823,-1.4952,-0.3078,0.1428,1.533
2.829,-1.2679,-0.55,0.0778,1.384
2.833,-1.0555,-0.5744,-0.0857,1.205
2.838,-1.0329,-0.5911,-0.0498,1.191
2.843,-0.9918,-0.5284,-0.1026,1.128
2.847,-0.9064,-0.3197,-0.1343,0.97
2.852,-0.7146,0.0112,-0.1993,0.742
2.857,-0.4883,-0.064,-0.3175,0.586
2.862,-0.5357,0.0939,0.299,0.621
2.867,-0.6631,0.2595,0.4755,0.856
2.872,-0.71,0.2895,0.4874,0.909
2.877,-0.748,0.236,0.4965,0.928
2.881,-0.9061,0.1803,0.6675,1.14
2.886,-0.964,0.1957,0.7048,1.21
2.892,-0.8644,0.3247,0.6915,1.154
2.898,-0.8153,0.6586,0.7888,1.312
2.902,-0.8907,0.9244,1.1092,1.697
2.907,-0.9352,1.0717,1.3043,1.93
2.912,-0.9823,1.3008,1.2411,2.049
2.915,-1.0056,1.6252,0.7793,2.064
2.921,-0.94,1.4621,0.9975,2.004
2.925,-1.4113,0.6931,2.2886,2.777
2.93,-1.3183,1.2164,1.7,2.471
2.935,-0.2507,1.2303,0.9844,1.595
2.94,0.1029,0.9508,1.0583,1.426
2.944,-0.2471,0.7598,1.1922,1.435
2.95,-0.7719,0.432,1.4619,1.709
2.954,-1.1776,0.8536,0.6881,1.609
2.959,-0.5484,1.427,0.3936,1.579
2.964,-0.7626,0.7311,1.2614,1.645
2.968,-1.0597,0.6194,1.0891,1.641
2.973,-1.1051,0.3888,0.63,1.33
2.979,-0.5744,-0.0956,0.5319,0.789
2.984,-0.2716,-0.0069,0.4248,0.504
2.988,-0.3372,0.0323,0.5007,0.604
2.994,-0.6432,-0.414,0.65,1.004
2.998,-0.6446,-1.1288,0.5004,1.393
3.003,-0.3373,-1.7496,0.0875,1.784
3.009,0.1826,-2.0417,-0.013,2.05
3.014,0.4204,-1.8479,-0.1389,1.9
3.019,0.092,-1.7367,-0.3865,1.782
3.025,-0.379,-1.7134,-0.4834,1.82
3.028,-0.6314,-1.6522,-0.68,1.895
3.033,-0.6295,-1.6986,-0.6678,1.931
3.038,-0.5005,-1.3556,-0.7619,1.634
3.042,-0.4527,-1.0659,-0.4881,1.257
3.047,-0.4409,-0.9945,-0.3837,1.153
3.051,-0.4963,-1.0255,-0.2835,1.174
3.056,-0.6527,-1.2369,-0.3568,1.443
3.061,-0.5733,-1.4547,-0.23,1.58
3.066,-0.66,-0.9744,-0.4593,1.263
3.071,-0.6546,-0.7289,-0.6337,1.167
3.076,-0.5189,-0.8225,-0.4631,1.077
3.081,-0.1791,0.0343,-0.3984,0.438
3.086,-0.221,1.0529,0.038,1.077
3.091,-0.5175,1.2653,0.6758,1.525
3.095,-0.6137,1.2001,0.7377,1.537
3.1,-0.4019,1.207,0.5259,1.377
3.105,-0.3414,1.1115,0.5937,1.306
3.11,-0.079,0.8602,0.6999,1.112
3.115,-0.3568,1.3505,1.2726,1.89
3.12,-0.206,1.4911,0.8156,1.712
3.125,0.1984,1.0959,1.0962,1.563
3.129,1.913,0.5342,1.2744,2.36
3.134,3.7962,-0.8865,1.9899,4.377
3.139,3.1449,-2.7089,2.4911,4.841
3.144,0.7499,-2.5195,2.7118,3.777
3.149,-0.2989,-0.7429,1.5707,1.763
3.153,-0.0758,0.6219,0.2134,0.662
3.158,-0.4186,1.1105,-0.3376,1.234
3.163,0.0039,0.8418,-0.3447,0.91
3.169,1.2452,0.2359,0.3291,1.309
3.173,1.351,0.1233,1.1535,1.781
3.178,0.7425,0.267,1.5794,1.766
3.183,0.8273,0.2352,1.5768,1.796
3.187,1.0856,0.3475,1.2039,1.658
3.192,0.8835,0.2674,1.0203,1.376
3.197,0.5467,0.2507,1.0378,1.2
3.202,0.5415,0.2111,0.969,1.13
3.207,0.332,0.1422,0.7845,0.864
3.211,0.3966,0.0678,0.6298,0.747
3.216,0.5103,0.0073,0.5661,0.762
3.222,0.6154,-0.0101,0.5671,0.837
3.226,0.6428,0.0733,0.6,0.882
3.231,0.688,0.2403,0.6895,1.003
3.235,0.6312,0.457,0.9002,1.191
3.241,0.6422,0.6104,1.082,1.398
3.246,0.7472,0.616,1.2306,1.566
3.251,0.9269,0.5194,1.3756,1.738
3.255,1.1434,0.402,1.3823,1.838
3.26,1.0505,0.3885,1.2843,1.704
3.265,0.9668,0.3092,1.2072,1.577
3.27,0.7131,0.2333,0.9055,1.176
3.274,0.5432,0.0925,0.6618,0.861
3.279,0.5838,-0.0514,0.392,0.705
3.284,0.4692,-0.2672,0.4433,0.699
3.289,0.2691,-0.6577,0.7198,1.011
3.294,0.5339,-1.0971,0.8087,1.464
3.3,1.0676,-1.4083,0.6384,1.879
3.304,1.1291,-1.7484,0.3425,2.109
3.308,0.8263,-1.9451,0.1843,2.121
3.313,0.573,-2.0398,-0.1009,2.121
3.318,0.5121,-2.0665,-0.2696,2.146
3.323,0.6,-2.0281,-0.5649,2.189
3.328,0.6717,-1.7019,-0.7153,1.964
3.333,0.507,-1.6089,-0.8222,1.877
3.338,0.2737,-1.5654,-0.7943,1.777
3.345,0.1463,-1.324,-0.8415,1.576
3.349,-0.0042,-1.0063,-1.0471,1.452
3.355,-0.1753,-1.1123,-0.9769,1.491
3.36,-0.1566,-1.2268,-1.0458,1.62
3.364,0.0328,-1.4357,-0.9012,1.695
3.367,-0.0474,-1.4674,-0.9963,1.774
3.372,0.227,-1.4728,-0.8345,1.708
3.378,0.4419,-0.827,-0.883,1.288
3.381,0.4392,0.0214,-0.819,0.93
3.386,0.7178,0.87,-0.7258,1.341
3.391,0.8776,1.1614,-0.6665,1.601
3.397,0.7605,1.0804,-0.2564,1.346
3.401,0.3021,1.1126,0.0716,1.155
3.407,0.2657,1.2074,0.4156,1.304
3.41,0.5173,1.0361,0.7622,1.386
3.414,0.863,0.7322,0.8995,1.446
3.419,1.1574,0.2602,1.4163,1.848
3.424,0.9011,0.2664,1.8413,2.067
3.43,0.7446,0.4999,2.2495,2.422
3.435,0.7762,0.6559,2.4941,2.693
3.441,0.859,0.6018,2.3428,2.567
3.445,0.8811,0.3886,1.9816,2.203
3.45,0.7933,0.1758,1.8288,2.001
3.454,0.7227,0.077,1.639,1.793
3.458,0.8466,-0.3035,1.4884,1.739
3.463,0.7654,-0.6504,1.4176,1.737
3.468,0.6699,-0.7834,1.0259,1.454
3.473,0.235,-0.5182,1.165,1.296
3.477,0.1248,-0.4863,0.9468,1.072
3.482,0.0141,-0.4407,0.2512,0.508
3.487,-0.2441,-0.1546,0.0267,0.29
3.493,-1.0297,-0.1507,-0.4158,1.121
3.498,-1.0208,0.3035,-0.9189,1.407
3.505,-1.1958,0.427,-0.8896,1.55
3.51,-1.2847,0.8177,-0.6214,1.645
3.517,-1.1781,1.258,-0.379,1.765
3.517,-1.1963,1.3637,-0.351,1.848
3.524,-1.3054,1.4667,-0.3222,1.99
3.527,-1.4447,1.3606,-0.1813,1.993
3.534,-1.4391,0.9667,-0.0546,1.734
3.538,-1.3503,0.3801,-0.1877,1.415
3.544,-0.9537,0.0752,-0.1997,0.977
3.548,-0.6805,-0.0413,-0.245,0.724
3.556,-0.7083,-0.1777,-0.2299,0.766
3.558,-0.5596,-0.5148,-0.2549,0.802
3.562,-0.2115,-0.6369,-0.3083,0.739
3.568,0.0441,-0.6205,-0.3167,0.698
3.571,0.2005,-0.6467,-0.2503,0.722
3.576,0.1888,-0.6411,-0.0979,0.675
3.579,0.1623,-0.5167,0.0383,0.543
3.585,0.0876,-0.4305,0.0215,0.44
3.592,0.1082,-0.2864,0.0985,0.322
3.595,0.0686,-0.1927,0.2137,0.296
3.601,-0.0479,-0.204,0.298,0.364
3.604,-0.1335,-0.2576,0.4089,0.501
3.61,-0.1669,-0.3363,0.3307,0.5
3.615,-0.0478,-0.3488,0.3356,0.486
3.62,-0.0753,-0.1083,0.0075,0.132
3.628,0.1668,-0.1356,0.1781,0.279
3.629,0.2237,-0.1765,0.0766,0.295
3.636,0.2175,-0.1694,0.0333,0.278
3.64,0.1703,-0.1317,0.1387,0.256
3.644,-0.1158,0.0909,0.304,0.338
3.65,-0.117,0.1287,0.6041,0.629
3.653,-0.1997,0.6482,0.6454,0.936
3.66,-0.3043,1.2658,0.798,1.527
3.663,-0.1133,1.151,0.2552,1.184
3.669,0.5484,-0.4412,0.0466,0.705
3.673,0.7436,-0.574,0.8145,1.243
3.678,0.6141,-0.5065,0.8331,1.152
3.683,-0.3558,-0.6254,0.9734,1.21
3.688,-1.5721,-1.1484,2.8721,3.47
3.692,-1.3889,-1.1404,1.9128,2.625
3.697,-1.6241,-1.2628,1.7602,2.708
3.704,-1.868,-1.2451,1.672,2.799
3.706,-2.2279,-1.1363,1.5833,2.96
3.712,-2.4173,-1.0611,1.6175,3.096
3.717,-2.3177,-0.934,1.4428,2.885
3.723,-1.8412,-0.8336,1.3453,2.428
3.727,-1.2253,-0.8924,1.0998,1.873
3.731,-0.4225,-1.2078,0.5554,1.395
3.736,1.5753,-1.8226,0.4841,2.457
3.743,2.4409,-1.1023,1.0389,2.873
3.745,1.7921,-0.0547,1.6918,2.465
3.75,0.5283,0.5761,1.6703,1.844
3.755,-0.2399,0.8177,1.3491,1.596
3.762,-0.6487,0.9475,0.9273,1.476
3.766,-0.7936,0.7707,0.5177,1.221
3.77,-0.9977,0.4186,0.2766,1.117
3.774,-1.0198,-0.1063,0.1315,1.034
3.78,-0.4857,-0.6979,0.2861,0.897
3.784,0.0005,-0.9549,0.447,1.054
3.789,0.1657,-0.9429,0.5002,1.08
3.794,0.2177,-0.818,0.4982,0.982
3.801,0.47,-0.6766,0.3556,0.897
3.805,0.7868,-0.529,0.117,0.955
3.81,1.0493,-0.4366,-0.0775,1.139
3.814,1.344,-0.381,-0.2128,1.413
3.819,1.5588,-0.2483,-0.267,1.601
3.825,1.694,-0.0949,-0.2433,1.714
3.827,1.8214,0.0124,-0.0872,1.824
3.834,1.9653,-0.0688,0.186,1.975
3.837,2.0896,-0.2913,0.519,2.173
3.843,2.1112,-0.5295,0.8568,2.339
3.847,2.1239,-0.7067,1.0134,2.457
3.852,2.1713,-0.753,1.0402,2.523
3.857,2.1197,-0.6763,1.106,2.485
3.867,2.2036,-0.5911,1.143,2.552
3.868,2.3343,-0.5092,1.0602,2.614
3.873,2.3713,-0.3945,0.9845,2.598
3.876,2.25,-0.2526,0.8621,2.423
3.881,2.0162,-0.112,0.7333,2.148
3.885,1.8298,-0.0878,0.5638,1.917
3.891,1.7265,-0.1587,0.2621,1.753
3.895,1.5339,-0.2173,-0.0643,1.551
3.9,1.123,-0.1186,-0.1827,1.144
3.905,0.7205,-0.036,-0.2384,0.76
3.909,0.5599,-0.0446,-0.3595,0.667
3.914,0.526,-0.0467,-0.4865,0.718
3.919,0.3747,0.0095,-0.5424,0.659
3.925,0.1204,0.1135,-0.768,0.786
3.93,-0.0622,0.3005,-0.922,0.972
3.934,-0.1754,0.5052,-0.9789,1.115
3.939,-0.1575,0.6,-0.8135,1.023
3.946,0.0102,0.5776,-0.6279,0.853
3.95,0.0958,0.5174,-0.5398,0.754
3.957,-0.0008,0.4867,-0.5344,0.723
3.96,-0.1195,0.5063,-0.4077,0.661
3.964,-0.2866,0.3851,-0.4807,0.679
3.971,-0.287,0.1995,-0.6122,0.705
3.974,-0.1566,0.125,-0.5092,0.547
3.98,-0.1203,0.1119,-0.4273,0.458
3.984,-0.128,0.0456,-0.3842,0.408
3.991,-0.1868,-0.0693,-0.431,0.475
4.002,-0.2558,-0.2129,-0.3838,0.508
4.004,-0.206,-0.3965,-0.602,0.75
4.007,-0.4796,-0.9244,-0.7571,1.288
4.01,-0.7257,-1.3793,-0.7493,1.729
4.012,-0.3303,-0.959,-0.9089,1.362
4.017,-0.2352,-0.4304,-0.7179,0.87
4.021,-0.0935,0.0009,-0.4641,0.473
4.027,-0.0698,0.2169,-0.4255,0.483
4.03,0.3694,-0.0275,-0.6297,0.731
4.034,1.1765,-0.5495,-0.8282,1.54
4.042,1.1058,-0.658,-0.5499,1.399
4.047,1.1139,-0.7011,-0.241,1.338
4.051,2.1418,-0.9493,-0.2016,2.351
4.055,2.6665,-0.873,0.1446,2.81
4.061,2.3374,-0.5481,0.6044,2.476
4.064,2.7779,-0.6679,0.3137,2.874
4.069,3.1253,-0.8294,0.1318,3.236
4.074,2.2951,-0.6473,0.5335,2.444
4.079,1.196,-0.432,0.7301,1.466
4.084,0.3604,-0.3552,0.5654,0.759
4.088,-0.0616,-0.4208,0.4179,0.596
4.093,-0.4193,-0.6581,0.3141,0.841
4.098,-0.6366,-0.5319,0.7118,1.093
4.102,-0.6952,-0.6911,0.5269,1.113
4.109,-0.8578,-0.7628,0.6814,1.335
4.115,-0.8379,-0.6712,0.7736,1.323
4.118,-0.8073,-0.9495,0.5857,1.377
4.127,-0.9491,-1.066,0.924,1.7
4.129,-0.8208,-0.7366,1.3548,1.747
4.134,-0.6192,-0.7892,1.3804,1.706
4.139,-0.8148,-0.9341,1.509,1.953
4.145,-1.0959,-0.95,1.6713,2.213
4.149,-1.3666,-0.9726,1.5942,2.314
4.154,-1.4618,-1.1212,1.4047,2.317
4.158,-1.3098,-1.3925,1.0793,2.195
4.164,-1.2788,-1.521,0.948,2.202
4.172,-1.4022,-1.4534,0.9468,2.23
4.174,-1.3193,-1.3712,0.7245,2.036
4.179,-1.2596,-1.2569,0.6149,1.883
4.182,-1.2044,-1.2422,0.5115,1.804
4.189,-1.18,-1.2166,0.4464,1.753
4.193,-1.3037,-1.1371,0.335,1.762
4.198,-1.5347,-0.9869,0.1699,1.832
4.202,-1.6796,-0.9345,-0.0073,1.922
4.208,-1.6979,-1.006,-0.0655,1.975
4.213,-1.5516,-1.067,-0.0178,1.883
4.22,-1.4798,-1.2365,-0.045,1.929
4.223,-1.4465,-1.2583,-0.0591,1.918
4.227,-1.1888,-1.0687,-0.0218,1.599
4.231,-0.9986,-1.1526,-0.0555,1.526
4.235,-0.725,-1.022,0.0745,1.255
4.24,-0.5543,-1.1117,0.1334,1.249
4.249,-0.453,-1.2596,0.1457,1.346
4.251,-0.385,-1.2407,0.1506,1.308
4.255,-0.2688,-1.1129,0.2022,1.163
4.261,0.5316,-1.3591,0.0839,1.462
4.266,1.8104,-1.9301,0.1316,2.65
4.274,2.2562,-2.023,0.8365,3.144
4.275,1.9008,-1.6283,1.4803,2.908
4.284,1.8204,-1.311,1.3337,2.61
4.287,1.9891,-1.1813,0.9803,2.513
4.292,1.9148,-1,1.2148,2.478
4.298,1.7074,-0.9187,1.3411,2.357
4.3,1.4314,-0.8704,1.2852,2.111
4.304,0.9527,-0.7411,1.096,1.63
4.314,0.3976,-0.568,0.8124,1.068
4.316,-0.0529,-0.4359,0.3756,0.578
4.321,-0.4807,-0.238,-0.0012,0.536
4.324,-0.8935,-0.1186,-0.2296,0.93
4.329,-1.1325,-0.2028,-0.4602,1.239
4.334,-1.2628,-0.273,-0.6614,1.451
4.339,-1.4262,-0.2913,-0.7801,1.651
4.343,-1.6446,-0.2127,-0.8466,1.862
4.347,-1.8872,-0.0852,-1.0275,2.151
4.353,-2.0753,0.0361,-1.2993,2.449
4.358,-2.1683,0.1417,-1.5113,2.647
4.363,-2.1138,0.1596,-1.6235,2.67
4.37,-1.9121,-0.0078,-1.636,2.516
4.372,-1.838,-0.0206,-1.2466,2.221
4.387,-1.2725,-0.3995,-1.1152,1.739
4.388,0.3394,-1.7951,-1.3776,2.288
4.39,2.0779,-2.3563,-0.8401,3.252
4.405,2.1091,-2.0001,0.185,2.913
4.409,0.9989,-1.1315,0.8619,1.738
4.411,0.0702,-0.4815,0.7386,0.885
4.412,-0.3383,-0.3049,0.4545,0.643
4.413,-0.0408,-0.5998,0.4331,0.741
4.418,0.6727,-1.1649,0.6343,1.487
4.428,1.1521,-1.6379,0.903,2.197
4.43,1.0873,-1.813,0.9552,2.32
4.432,2.5726,-2.6746,0.4208,3.735
4.434,4.4133,-3.5957,0.3175,5.701
4.441,3.5775,-2.6928,1.8582,4.848
4.446,1.2447,-1.1674,2.6703,3.169
4.451,-0.7409,-0.2286,1.8311,1.988
4.455,-1.8791,0.0186,0.6843,2
4.458,-2.5119,-0.1054,-0.1184,2.517
4.464,-2.868,-0.4653,-0.1259,2.908
4.468,-3.095,-0.899,0.0227,3.223
4.475,-3.1628,-1.4305,-0.1988,3.477
4.479,-3.1434,-1.9208,-0.3263,3.698
4.483,-3.0463,-2.2713,-0.3882,3.82
4.489,-2.9059,-2.435,-0.4207,3.815
4.493,-2.7698,-2.6508,-0.405,3.855
4.498,-3.0902,-2.7852,-0.3432,4.174
4.503,-2.6372,-2.8323,-0.2142,3.876
4.508,-2.2666,-2.7841,0.1052,3.592
4.513,-2.0438,-2.5835,0.4479,3.325
4.518,-1.698,-2.3419,0.5573,2.946
4.526,-1.3901,-2.1955,0.3599,2.623
4.529,-1.2157,-1.9629,0.094,2.311
4.532,-1.2001,-1.6284,-0.0217,2.023
4.537,-1.2401,-1.4192,-0.0635,1.886
4.541,-1.3427,-1.3894,-0.1107,1.935
4.546,-1.586,-1.4021,-0.2754,2.135
4.551,-1.8602,-1.4811,-0.433,2.417
4.556,-2.0084,-1.6075,-0.5199,2.624
4.561,-1.818,-1.7618,-0.4989,2.58
4.567,-1.3929,-1.8655,-0.5265,2.387
4.571,-0.9344,-1.8854,-0.5622,2.178
4.579,-0.3354,-1.748,-0.5246,1.856
4.581,0.289,-1.6263,-0.506,1.728
4.587,0.8306,-1.7486,-0.3114,1.961
4.596,1.4724,-1.824,-0.2541,2.358
4.598,1.9561,-1.6433,-0.1306,2.558
4.605,1.8569,-1.3884,0.2364,2.331
4.608,1.0721,-0.8618,0.7006,1.544
4.61,1.37,-1.1274,0.2396,1.79
4.615,1.9618,-1.4881,0.145,2.467
4.623,2.5446,-1.7283,0.4596,3.11
4.626,3.2395,-2.0075,0.7973,3.894
4.63,3.9124,-2.1345,1.1475,4.602
4.638,4.3551,-2.001,1.4523,5.008
4.644,4.3563,-1.6238,1.6642,4.938
4.646,3.9218,-1.2853,1.773,4.492
4.649,3.295,-1.0343,1.7162,3.856
4.654,3.1368,-0.6899,1.5916,3.584
4.66,2.9995,-0.5298,1.4859,3.389
4.663,2.6827,-0.3769,1.5179,3.105
4.668,2.2207,-0.5186,1.2702,2.61
4.673,1.8356,-0.6059,0.8039,2.093
4.678,1.5497,-0.4841,0.3449,1.66
4.684,1.4237,-0.4384,-0.1083,1.494
4.69,1.3545,-0.4757,-0.2613,1.459
4.692,1.2901,-0.7424,-0.1186,1.493
4.697,1.5489,-1.3168,0.0925,2.035
4.702,2.0738,-1.8109,0.4792,2.795
4.708,2.0703,-1.7225,1.2641,2.975
4.713,1.6292,-1.1244,1.8776,2.728
4.717,1.2818,-0.6409,1.9357,2.408
4.721,1.0227,-0.3535,1.6912,2.008
4.726,0.7776,-0.1784,1.4744,1.676
4.732,0.683,-0.0803,1.2598,1.435
4.736,0.8078,-0.0734,1.0152,1.299
4.74,1.1615,-0.0735,0.7003,1.358
4.745,1.5581,0.0893,0.2174,1.576
4.753,1.6981,0.4871,-0.2204,1.78
4.754,1.8076,0.8206,-0.4496,2.035
4.765,2.1339,0.7795,-0.6113,2.353
4.768,2.6945,0.4506,-0.6432,2.807
4.774,3.0278,0.159,-0.4414,3.064
4.777,3.0037,0.0485,0.0007,3.004
4.781,2.8043,0.1068,0.4659,2.845
4.785,2.6471,0.2235,0.8224,2.781
4.791,2.5038,0.3915,0.9773,2.716
4.793,2.2324,0.6225,1.0716,2.553
4.801,1.9433,0.6391,1.2412,2.393
4.803,1.8667,0.3485,1.3944,2.356
4.809,1.8441,0.1026,1.4349,2.339
4.813,1.5142,0.164,1.3041,2.005
4.818,1.095,0.413,1.1413,1.635
4.822,0.7771,0.5526,0.7908,1.239
4.828,-0.1785,0.0667,0.682,0.708
4.834,-0.1541,0.4446,0.8434,0.966
4.838,-0.0714,0.6503,0.531,0.843
4.845,0.1862,0.9039,0.4277,1.017
4.85,0.4164,1.0527,0.2565,1.161
4.851,0.5233,1.0727,0.1092,1.199
4.857,0.5408,1.0097,-0.0945,1.149
4.863,0.5388,0.9737,-0.3464,1.165
4.867,0.5465,1.096,-0.5086,1.326
4.871,0.6806,1.2545,-0.5476,1.529
4.875,0.9583,1.368,-0.4731,1.736
4.881,1.2994,1.5107,-0.2344,2.006
4.889,1.5998,1.6061,0.0042,2.267
4.891,1.8086,1.7378,0.2363,2.519
4.895,1.8952,1.9273,0.3816,2.73
4.9,1.8056,2.0957,0.2379,2.776
4.91,1.6402,2.2356,-0.2366,2.783
4.912,1.3079,2.5097,-0.8742,2.962
4.916,0.8139,2.9342,-1.3163,3.317
4.921,0.4556,3.2486,-1.3206,3.536
4.925,0.5879,3.2639,-1.2265,3.536
4.932,0.9621,3.1071,-1.2396,3.481
4.934,1.1871,2.8788,-1.2467,3.354
4.94,1.1946,2.7535,-1.2456,3.25
4.945,1.1001,2.5923,-1.1258,3.033
4.952,1.0546,2.4718,-1.0442,2.883
4.954,1.0681,2.2534,-0.9739,2.677
4.96,0.8979,2.0519,-0.8327,2.39
4.964,0.6755,1.9341,-0.5649,2.125
4.969,0.5825,1.8476,-0.2602,1.955
4.973,0.5896,1.7873,0.0173,1.882
4.98,0.5531,1.6961,0.2636,1.803
4.984,0.4585,1.5285,0.4079,1.647
4.989,0.2838,1.4495,0.5658,1.582
4.992,0.222,1.3204,0.7234,1.522
4.998,0.1845,1.2466,0.7974,1.491
5.003,0.1803,1.1418,0.8021,1.407
5.007,0.0635,1.1327,0.8137,1.396
5.011,0.0079,1.0783,0.9376,1.429
5.021,-0.1732,0.9953,1.1091,1.5
5.022,-0.2746,0.8671,1.1804,1.49
5.028,-0.1911,0.5934,1.3167,1.457
5.031,0.3068,0.2364,1.3434,1.398
5.037,0.6988,0.1452,1.3492,1.526
5.043,0.2178,0.4532,1.5349,1.615
5.048,-0.9911,1.0072,1.5398,2.09
5.054,-1.847,1.2236,1.3017,2.57
5.056,-2.1705,1.0718,0.8777,2.575
5.061,-2.1404,0.7244,0.3048,2.28
5.066,-1.9291,0.2817,-0.0931,1.952
5.071,-1.6652,-0.5212,-0.5738,1.837
5.076,-1.4476,-1.0365,-0.6889,1.909
5.081,-1.4818,-0.9393,-0.1751,1.763
5.092,-1.5718,-0.73,0.3117,1.761
5.094,-1.6146,-0.4778,0.6529,1.806
5.097,-1.5115,-0.3837,0.7324,1.723
5.107,-1.3771,-0.3374,0.6985,1.581
5.109,-1.2133,-0.2242,0.7738,1.456
5.111,-1.08,-0.0704,0.8052,1.349
5.113,-0.9992,0.1862,0.7171,1.244
5.119,-0.9417,0.5071,0.644,1.248
5.123,-0.7753,0.2423,0.7344,1.095
5.13,-0.5021,-0.225,0.8974,1.053
5.133,-0.2532,-0.2182,1.1426,1.191
5.138,-0.0554,-0.0128,1.2429,1.244
5.142,-0.0615,-0.0534,1.0795,1.083
5.148,-0.0338,-0.113,0.9214,0.929
5.153,-0.013,0.0213,0.0128,0.028
5.158,-0.3684,0.1317,-1.3887,1.443
5.163,-0.871,0.3851,-2.7515,2.912
5.168,-1.2664,0.6784,-4.1286,4.371
5.173,-1.5676,0.9612,-4.9985,5.326
5.178,-1.6083,1.2258,-5.1079,5.494
5.184,-1.0538,1.1833,-4.5355,4.804
5.189,-0.1991,0.0502,-3.8869,3.892
5.191,0.1101,-0.5874,-2.8846,2.946
5.195,-0.2044,-1.1557,-2.3149,2.595
5.2,-0.4775,-1.5829,-2.2158,2.765
5.205,-0.6392,-1.6059,-2.4121,2.967
5.21,-1.0527,-1.7911,-2.1124,2.963
5.215,-0.9984,-0.9859,-1.6398,2.158
5.22,-0.9523,-0.8066,-1.2948,1.798
5.224,-0.8257,-0.6353,-1.0207,1.459
5.229,-0.9527,-0.5554,-0.3686,1.163
5.237,-0.6084,0.3846,0.2499,0.762
5.239,-0.0426,1.1205,0.6548,1.299
5.243,-0.1606,0.763,1.1621,1.399
5.25,-0.3631,-0.0041,2.6755,2.7
5.254,-0.9791,-0.5758,4.0572,4.213
5.26,-1.4769,-0.0892,3.852,4.126
5.264,-2.0366,-0.1833,2.8471,3.505
5.268,-1.8531,-0.5362,0.7067,2.055
5.274,-1.7246,-1.0122,-1.2811,2.375
5.278,-1.2717,-1.2871,-2.1984,2.847
5.286,-0.9203,-1.5395,-2.7905,3.317
5.289,-0.3385,-1.4706,-2.7745,3.158
5.292,0.1685,-1.2742,-2.4241,2.744
5.298,0.6958,-0.8098,-1.7507,2.051
5.302,0.7832,-0.3553,-1.0589,1.364
5.308,0.9791,0.1419,-0.3114,1.037
5.311,1.0089,0.4617,0.1213,1.116
5.316,0.643,0.2408,0.2792,0.741
5.322,0.1303,-0.1568,0.1196,0.236
5.329,-0.2912,-0.5777,-0.1478,0.664
5.331,-0.4028,-0.7183,-0.4189,0.924
5.338,-0.1738,-0.5071,-0.5293,0.753
5.342,-0.3505,-0.2028,-0.3567,0.54
5.348,-0.394,-0.1234,-0.1617,0.443
5.349,-0.6665,-0.2877,-0.2462,0.767
5.355,-1.0955,-0.4349,0.106,1.183
5.359,-1.3942,-0.4576,0.3588,1.511
5.364,-1.3513,-0.3751,0.3349,1.442
5.369,-1.3187,-0.1758,0.4706,1.411
5.373,-1.2714,0.0494,0.4991,1.367
5.378,-1.1899,0.1425,0.6049,1.342
5.383,-1.0317,0.1157,0.5584,1.179
5.387,-1.579,-0.3843,0.3994,1.673
5.391,-2.5337,-1.0438,0.5923,2.804
5.396,-2.5355,-1.3556,1.0257,3.053
5.401,-1.6598,-1.0502,1.4005,2.412
5.406,-0.014,-0.4085,1.3354,1.397
5.41,0.8495,0.4209,0.7151,1.187
5.416,1.2082,1.2488,0.1851,1.747
5.421,1.2866,1.8675,-0.106,2.27
5.426,1.3147,2.048,-0.0964,2.436
5.433,1.1522,1.9509,0.0247,2.266
5.437,1.071,1.572,0.0621,1.903
5.443,0.9602,1.0767,0.2224,1.46
5.447,0.8595,0.544,0.4456,1.11
5.46,0.6399,0.1914,0.6864,0.958
5.462,0.4859,-0.0866,0.9483,1.069
5.466,0.4764,-0.3021,1.094,1.231
6.321,0.4703,-0.3032,1.1315,1.262
6.321,0.4675,-0.3033,1.1451,1.273
6.322,0.1575,-0.4229,0.8366,0.951
6.322,0.155,-0.4228,0.8505,0.962
6.322,0.1524,-0.4227,0.8644,0.974
6.322,-0.7712,-0.781,-0.0902,1.101
6.323,-0.8607,-0.7493,-0.1038,1.146
6.323,-0.7877,-0.5455,-0.2609,0.993
6.323,-0.5356,-0.2272,-0.2815,0.646
6.323,-0.143,0.1504,-0.1105,0.235
6.323,0.2181,0.4726,0.151,0.542
6.323,0.2059,0.5721,0.3094,0.682
6.323,-0.1457,0.4135,0.231,0.496
6.323,-0.6667,0.2479,-0.0552,0.713
6.324,-0.8954,0.1232,-0.4319,1.002
6.324,-1.2339,0.1516,-0.495,1.338
6.324,-1.5361,0.3544,-0.3645,1.618
6.324,-0.9143,0.6145,-0.2561,1.131
6.324,-0.5509,0.5686,0.0359,0.793
6.324,-0.3661,0.3986,0.4499,0.704
6.325,-0.2255,-0.0029,0.5002,0.549
6.325,-0.502,-0.5281,0.617,0.955
6.325,-0.2857,-0.5938,0.8096,1.044
6.325,0.2204,-0.2101,1.0039,1.049
6.325,0.2434,0.1921,1.1832,1.223
6.325,0.0437,0.245,1.0226,1.052
6.325,-0.0277,0.2095,0.7659,0.795
6.325,0.0056,0.2005,0.5158,0.553
6.326,1.2744,-0.7625,-0.1512,1.493
6.326,2.8134,-2.1122,-1.8555,3.977
6.326,0.8418,-1.1735,-0.2045,1.459
6.326,-1.705,0.2301,2.4935,3.029
6.327,-2.6829,0.6357,3.1424,4.18
6.327,-2.2848,0.3219,1.9648,3.031
6.327,-0.9861,-0.3331,0.3912,1.112
6.327,-0.7113,-0.5854,-0.3429,0.983
6.327,-0.8545,-0.5075,0.1168,1.001
6.327,-0.6518,-0.4557,0.3337,0.862
6.327,-0.8347,-0.6263,0.6847,1.248
6.328,-0.4649,-1.1383,0.956,1.557
6.328,0.206,-0.8541,1.261,1.537
6.328,0.5888,-0.5324,1.5933,1.78
6.328,-0.0966,-0.0824,1.9775,1.982
6.328,-0.5234,0.0824,2.1315,2.196
6.328,-1.0753,0.1538,1.7124,2.028
6.328,-1.2487,0.0386,1.2907,1.796
6.328,-1.0136,-0.2173,1.0094,1.447
6.329,-0.6233,-0.4633,0.689,1.038
6.329,-0.496,-0.6134,0.5064,0.937
6.329,-0.6223,-0.5841,0.5695,1.026
6.329,-0.9044,-0.538,0.6707,1.248
6.329,-1.3044,-0.64,0.5306,1.547
6.329,-1.6432,-1.0261,0.1156,1.941
6.329,-2.2668,-1.794,-0.235,2.9
6.33,-2.28,-1.8655,-0.3077,2.962
6.33,-2.0578,-1.7125,-0.1874,2.684
6.33,-1.8828,-1.2396,0.0504,2.255
6.33,-1.8296,-0.9036,0.1236,2.044
6.33,-1.5755,-0.7951,0.1504,1.771
6.331,-1.3934,-0.7489,0.1054,1.585
6.331,-1.2461,-0.5473,0.0877,1.364
6.331,-1.2844,-0.3099,0.1282,1.327
6.331,-1.3625,-0.1682,0.0788,1.375
6.331,-1.358,-0.1102,0.0382,1.363
6.331,-1.2423,-0.1119,0.0208,1.248
6.331,-1.0841,-0.0705,0.1967,1.104
6.331,-1.0065,-0.1535,0.3507,1.077
6.332,-0.9743,-0.2412,0.3994,1.08
6.332,-0.9522,-0.312,0.4285,1.09
6.332,-0.9067,-0.3205,0.5027,1.085
6.332,-0.7968,-0.3768,0.5862,1.059
6.332,-0.7924,-0.4616,1.0252,1.376
6.332,-0.4682,-0.2619,0.7938,0.958
6.332,-0.2134,-0.1556,0.7853,0.829
6.332,-0.3158,-0.0422,0.7311,0.798
6.332,-0.4407,-0.0292,0.5502,0.706
6.333,-0.3446,-0.138,0.3456,0.507
6.333,-0.3036,-0.0192,0.1368,0.334
6.333,-0.084,0.0946,0.0671,0.143
6.333,0.2092,0.1319,0.1532,0.291
6.333,0.4689,0.1953,0.2419,0.563
6.333,0.5024,0.1893,0.2817,0.606
6.333,0.4596,0.1211,0.3673,0.601
6.333,0.4625,0.0983,0.3839,0.609
6.333,0.4247,0.09,0.3722,0.572
6.334,0.2797,0.0266,0.3608,0.457
6.334,0.1326,-0.0988,0.39,0.424
6.334,0.1078,-0.1572,0.3925,0.436
6.334,0.2007,-0.1915,0.3253,0.428
6.334,0.2082,-0.1542,0.2723,0.376
6.334,0.0324,-0.1385,0.289,0.322
6.334,-0.1595,-0.1755,0.3374,0.412
6.334,-0.3939,-0.2363,0.2476,0.522
6.334,-0.587,-0.247,0.1915,0.665
6.335,-0.6933,-0.229,0.1854,0.753
6.335,-0.7508,-0.2278,0.2747,0.831
6.335,-0.8577,-0.174,0.3927,0.959
6.335,-1.0118,-0.1778,0.4725,1.131
6.335,-1.0672,-0.2246,0.5046,1.202
6.335,-1.0915,-0.281,0.5132,1.238
6.335,-0.8764,-0.3493,0.4553,1.048
6.336,-0.6348,-0.4725,0.448,0.909
6.336,-0.4748,-0.6673,0.4337,0.927
6.336,-0.7188,-0.4317,0.5702,1.014
6.336,-0.5151,-0.2992,0.492,0.773
6.336,-0.1892,-0.3152,0.3573,0.513
6.336,0.0322,-0.3791,0.1516,0.41
6.336,0.0542,-0.3715,0.0041,0.375
6.336,-0.2669,-0.2039,-0.0398,0.338
6.336,-0.5081,-0.0341,-0.0473,0.511
6.337,-0.6651,-0.0033,-0.0809,0.67
6.337,-0.6208,-0.0586,-0.0929,0.63
6.337,-0.5402,-0.1568,-0.0046,0.563
6.337,-0.4498,-0.188,0.0978,0.497
6.337,-0.3713,-0.1786,0.1665,0.444
6.337,-0.319,-0.107,0.2374,0.412
6.337,-0.1586,-0.1073,0.3277,0.38
6.337,-0.4718,-0.0455,0.1884,0.51
6.338,-0.4715,-0.0673,0.1062,0.488
6.338,-0.3203,-0.0269,0.1984,0.378
6.338,-0.353,0.0779,0.2999,0.47
6.338,-0.5675,0.185,0.3029,0.669
6.338,-0.6794,0.1558,0.26,0.744
6.338,-0.8874,0.0958,0.0823,0.896
6.338,-1.1223,0.0862,-0.1415,1.134
6.338,-1.0921,0.0552,-0.2997,1.134
6.338,-0.7253,-0.0782,-0.3613,0.814
6.339,-2.1852,0.2691,0.38,2.234
6.339,-1.7201,-0.0434,0.1361,1.726
6.339,-1.3152,-0.0853,-0.1478,1.326
6.339,-1.2443,0.0307,-0.2276,1.265
6.339,-1.1385,0.1131,-0.1609,1.155
6.339,-0.8898,0.1332,-0.0438,0.901
6.339,-0.7156,0.1462,0.1646,0.749
6.34,-0.5322,0.1352,0.3468,0.649
6.34,-0.4448,0.1433,0.4166,0.626
6.34,-0.4197,0.1252,0.324,0.545
6.34,-0.3521,0.1357,0.2483,0.452
6.34,-0.3135,0.1344,0.2304,0.412
6.34,-0.2375,0.0924,0.2155,0.334
6.34,-10.5692,3.7628,-3.0003,11.613
6.341,-11.5219,1.3734,-9.1197,14.758
6.341,-1.798,-0.4242,0.8575,2.037
6.341,-2.7428,-1.2336,3.17,4.37
6.341,-8.1304,0.2748,-0.7915,8.173
6.341,0.3254,-2.4528,1.0484,2.687
6.341,-6.3405,0.1221,-0.0223,6.342
6.342,-3.0728,0.4475,-0.5741,3.158
6.342,0.7549,-0.1143,1.5135,1.695
6.342,-3.2475,1.0287,0.2435,3.415
6.342,-0.3251,-0.3868,-0.4526,0.678
6.342,-0.9146,-0.0346,-0.9604,1.327
6.342,0.6766,0.1183,-0.4822,0.839
6.342,-0.8706,0.9661,0.0986,1.304
6.343,5.8753,-1.3831,0.8825,6.1
6.343,2.3574,0.4514,0.6936,2.498
6.343,19.189,-5.4321,5.4453,20.673
6.343,17.0946,-2.132,7.8151,18.917
6.343,17.0835,-2.1317,7.8121,18.906
6.344,17.0805,-2.1328,7.809,18.902
6.344,17.0874,-2.1357,7.8082,18.908
6.344,17.1075,-2.1412,7.811,18.928
6.345,17.1302,-2.1467,7.8118,18.949
6.345,17.1471,-2.1506,7.8059,18.963
6.345,17.1601,-2.1531,7.7931,18.969
6.345,17.1696,-2.1542,7.7735,18.97
6.345,17.1767,-2.1542,7.7461,18.965
6.346,17.1827,-2.1535,7.7156,18.958
6.346,17.1849,-2.1524,7.6868,18.948
6.346,17.1802,-2.1509,7.6643,18.935
6.346,17.1703,-2.149,7.6463,18.918
6.347,17.1551,-2.1467,7.6317,18.898
6.347,17.1356,-2.144,7.6192,18.875
6.347,17.1128,-2.1409,7.6085,18.85
6.347,17.0875,-2.1376,7.5989,18.823
6.348,17.0596,-2.134,7.5907,18.794
6.348,-4.7873,-0.3281,0.1127,4.8
6.348,-4.3696,0.1877,-0.2532,4.381
6.348,-4.0421,0.6248,-0.6692,4.144
6.348,-3.4711,1.2865,-1.0404,3.845
6.349,-3.11,1.4387,-0.9773,3.563
6.351,-2.709,1.5216,-0.724,3.19
6.358,-2.4039,1.5327,-0.4119,2.881
6.36,-2.191,1.4318,-0.1532,2.622
6.366,-1.7283,1.1807,0.1743,2.1
6.37,-1.5623,1.0303,0.4369,1.922
6.375,-1.5131,0.8894,0.4539,1.813
6.38,-1.564,0.7319,0.3572,1.763
6.385,-1.5863,0.6102,0.1712,1.708
6.391,-1.6114,0.5461,-0.0131,1.702
6.395,-1.5564,0.4773,-0.1936,1.639
6.4,-1.3329,0.3921,-0.237,1.409
6.405,-1.1926,0.3694,-0.2417,1.272
6.409,-1.1636,0.3877,-0.3537,1.277
6.414,-0.7867,0.3489,-0.3722,0.938
6.421,-0.4465,0.3436,-0.2136,0.603
6.424,-0.3288,0.391,-0.2746,0.58
6.428,0.1739,0.2255,-0.3091,0.42
6.433,0.5935,0.0911,-0.1856,0.628
6.438,0.8017,-0.0219,-0.2125,0.83
6.443,1.0769,-0.1521,-0.2511,1.116
6.449,1.1704,-0.2087,-0.2845,1.222
6.453,0.796,-0.2323,-0.4609,0.949
6.458,0.5628,-0.4381,-0.6489,0.964
6.463,0.5322,-0.7538,-0.5903,1.095
6.468,0.1517,-0.9022,-0.6484,1.121
6.472,-0.249,-0.9814,-0.7997,1.29
6.477,-0.4695,-1.0485,-0.7836,1.391
6.482,-0.4365,-1.1394,-0.5216,1.327
6.487,-0.4782,-1.1726,-0.279,1.297
6.491,-0.7569,-1.0767,-0.2685,1.343
6.497,-1.038,-0.9903,-0.3801,1.484
6.501,-1.071,-0.954,-0.4344,1.499
6.507,-0.6148,-0.963,-0.1947,1.159
6.511,-0.1427,-0.9145,0.1429,0.937
6.516,0.0858,-0.8066,0.2227,0.841
6.521,0.2747,-0.7087,0.224,0.792
6.525,0.3072,-0.5563,0.2541,0.684
6.53,0.0234,-0.395,0.2007,0.444
6.535,-0.2305,-0.3129,0.2332,0.453
6.54,-0.3783,-0.3529,0.4711,0.7
6.544,-0.4394,-0.4527,0.7302,0.965
6.55,-0.5693,-0.5047,0.9153,1.19
6.554,-0.6987,-0.442,0.9759,1.279
6.561,-0.7774,-0.3532,0.9792,1.299
6.564,-0.6792,-0.3051,1.0445,1.283
6.57,-0.4591,-0.2667,1.1766,1.291
6.574,-0.3202,-0.2283,1.2416,1.302
6.579,-0.2217,-0.1375,1.182,1.21
6.584,-0.4216,-0.0421,0.962,1.051
6.589,-0.3463,-0.0233,0.8467,0.915
6.593,-0.0896,-0.0187,0.9653,0.97
6.599,0.1786,0.0122,1.0903,1.105
6.603,0.3367,0.0503,1.0259,1.081
6.608,0.4804,0.1075,0.8938,1.02
6.612,0.6027,0.2101,0.7918,1.017
6.618,0.6771,0.2911,0.6888,1.009
6.622,0.888,0.3362,0.6494,1.15
6.627,1.0488,0.4027,0.5851,1.267
6.632,0.964,0.5026,0.4459,1.175
6.637,0.7962,0.509,0.2079,0.968
6.642,0.4665,0.4748,0.0884,0.671
6.647,0.271,0.3524,0.1592,0.472
6.651,0.1974,0.1801,0.4705,0.541
6.656,-0.1681,0.0367,0.621,0.644
6.661,-0.1368,-0.1637,0.8192,0.847
6.666,-0.1322,-0.2395,0.9579,0.996
6.671,-0.2662,-0.3727,0.8651,0.979
6.676,-0.4468,-0.3554,0.5819,0.815
6.681,-0.548,-0.2714,0.3237,0.692
6.685,-0.5898,-0.2209,0.1139,0.64
6.69,-0.5103,-0.2419,0.0788,0.57
6.695,-0.4649,-0.2867,0.1272,0.561
6.7,-0.4676,-0.36,0.1201,0.602
6.705,-0.6568,-0.4284,0.0098,0.784
6.71,-0.8103,-0.4439,-0.1105,0.931
6.715,-1.1031,-0.4186,-0.1979,1.196
6.72,-1.3346,-0.4263,-0.2761,1.428
6.724,-1.5147,-0.5269,-0.3046,1.632
6.73,-1.5741,-0.6126,-0.2069,1.702
6.734,-1.5242,-0.6645,0.0049,1.663
6.74,-1.5538,-0.599,0.233,1.681
6.744,-1.6891,-0.5144,0.3891,1.808
6.749,-1.9042,-0.4416,0.4902,2.015
6.754,-2.0033,-0.4928,0.6462,2.162
6.758,-2.1396,-0.5627,0.6617,2.309
6.763,-1.675,-0.8663,0.6679,2.001
6.768,-0.7191,-1.1648,1.0906,1.75
6.773,-0.2127,-1.0952,1.1934,1.634
6.778,0.0843,-0.8421,0.6541,1.07
6.782,0.0927,-0.3864,-0.0346,0.399
6.787,-0.1263,0.0615,-0.6576,0.672
6.792,-0.2875,0.2849,-1.1433,1.213
6.797,-0.2863,0.198,-1.318,1.363
6.802,-0.1038,0.0069,-1.1204,1.125
6.807,0.0527,-0.2359,-0.7833,0.82
6.811,0.0975,-0.3272,-0.4478,0.563
6.816,0.3536,-0.3701,-0.3122,0.6
6.821,0.3068,-0.2069,0.1956,0.418
6.826,0.7512,-0.1893,0.3014,0.831
6.83,1.025,-0.0807,0.4165,1.109
6.835,1.2298,0.0134,0.4954,1.326
6.841,1.3403,0.0449,0.5356,1.444
6.846,1.4052,0.004,0.4011,1.461
6.851,1.4825,0.0031,0.3095,1.515
6.855,1.4368,0.1016,0.1845,1.452
6.86,1.388,0.0554,0.0406,1.39
6.865,1.2739,-0.1138,0.0047,1.279
6.87,0.8636,-0.2221,-0.1931,0.912
6.874,0.7015,-0.2957,-0.2442,0.799
6.88,0.5207,-0.2839,-0.0823,0.599
6.885,0.4209,-0.3731,0.0987,0.571
6.889,0.2413,-0.4339,0.2177,0.542
6.895,0.1274,-0.4448,0.2962,0.549
6.898,0.0616,-0.3888,0.3605,0.534
6.904,-0.0353,-0.3304,0.3509,0.483
6.909,-0.1037,-0.2912,0.3224,0.447
6.914,-0.1272,-0.3212,0.3921,0.523
6.919,-0.0869,-0.4274,0.5171,0.677
6.923,0.0508,-0.5836,0.6257,0.857
6.927,0.2573,-0.6751,0.7754,1.06
6.932,0.3585,-0.616,0.6724,0.98
6.938,0.3713,-0.5045,0.3717,0.728
6.942,0.2573,-0.4863,0.0931,0.558
6.947,-1.3451,0.22,-0.6082,1.493
6.952,-1.8316,0.3862,-2.6416,3.238
6.957,1.3157,-0.8428,1.7671,2.359
6.962,1.8782,-1.2608,2.3842,3.287
6.967,0.4557,-0.8191,0.5687,1.096
6.972,0.0298,-0.3332,-0.563,0.655
6.977,0.0877,0.2668,-0.8506,0.896
6.982,1.4265,-0.4389,0.6701,1.636
6.986,-7.8945,2.9593,-3.7893,9.243
6.991,3.4138,-2.2219,-0.0236,4.073
6.996,2.1343,-1.3291,4.4606,5.12
7.001,-5.9298,1.8196,-1.4908,6.379
7.006,-0.7078,-0.6725,-3.4637,3.599
7.01,0.9251,-0.1972,2.679,2.841
7.015,-3.4754,1.2381,-1.6414,4.038
7.02,-2.6872,0.4989,0.1927,2.74
7.025,-2.9609,0.2202,-2.5887,3.939
7.029,-0.1203,-0.3487,0.8687,0.944
7.034,1.067,-0.5467,2.308,2.601
7.039,-9.4097,3.4058,-3.0539,10.463
7.044,0.4445,-0.9735,-2.8145,3.011
7.048,-2.2671,1.4019,2.5191,3.668
7.054,1.6956,-1.3273,-0.4127,2.193
7.059,-5.5979,2.1288,0.406,6.003
7.063,2.4657,-0.8547,0.8842,2.755
7.068,0.0386,-0.1043,-0.8221,0.83
7.073,-3.2071,1.6511,-1.2765,3.826
7.078,-3.6149,1.7603,-0.7477,4.09
7.083,-1.4611,0.5169,-0.7168,1.708
7.088,3.7892,-1.8147,1.9815,4.645
7.093,-2.5698,0.6577,-1.9876,3.315
7.098,-1.836,0.6518,-0.2281,1.962
7.104,4.674,-2.3794,2.015,5.619
7.109,-5.3984,2.1156,-1.7593,6.059
7.114,0.6918,-0.4995,-0.2213,0.882
7.118,13.4319,-5.448,9.6198,17.396
7.123,-13.3165,6.0568,-5.4187,15.601
7.127,6.1226,-3.1797,-5.5375,8.847
7.132,-3.8494,2.3601,-0.6407,4.561
7.137,-2.4684,0.8253,-1.4514,2.98
7.141,-0.5645,-0.5072,2.6924,2.797
7.146,5.4664,-4.3233,0.5308,6.99
7.152,8.2366,-3.498,7.8355,11.894
7.156,3.3282,-1.227,0.5947,3.597
7.16,1.6133,-0.338,-2.3185,2.845
7.165,2.2284,0.0109,-1.8801,2.916
7.171,1.1729,0.7414,-1.6312,2.142
7.175,-1.1271,0.9147,-2.2795,2.702
7.179,-3.0111,0.7569,-2.5494,4.017
7.184,-4.2355,0.7423,-2.0766,4.775
7.189,-4.7776,0.7511,-1.1546,4.972
7.194,-4.822,0.4914,-0.0615,4.847
7.199,-4.6434,0.2474,0.7147,4.705
7.204,-4.3252,0.186,1.0604,4.457
7.209,-3.8623,0.2808,1.156,4.041
7.213,-3.4886,0.4284,1.0284,3.662
7.218,-3.1129,0.4638,0.8144,3.251
7.223,-3.0148,0.4779,0.4662,3.088
7.228,-2.9169,0.3635,0.1195,2.942
7.233,-2.8554,0.2258,-0.171,2.869
7.238,-2.6944,0.1656,-0.399,2.729
7.243,-2.5056,0.1444,-0.5338,2.566
7.247,-2.1574,0.1289,-0.5135,2.221
7.252,-1.7808,0.1354,-0.4506,1.842
7.257,-1.294,0.1424,-0.3284,1.343
7.262,-0.9997,0.1975,-0.2615,1.052
7.267,-0.8111,0.2598,-0.2644,0.892
7.271,-0.3496,0.169,-0.0168,0.389
7.277,-0.177,0.2119,0.2425,0.367
7.281,-0.0512,0.1589,0.1693,0.238
7.286,0.3008,-0.0664,0.2994,0.43
7.292,0.1046,0.0497,0.1669,0.203
7.296,0.0489,0.084,-0.0776,0.124
7.301,0.3056,0.0127,0.0604,0.312
7.307,0.5947,-0.1641,0.3348,0.702
7.313,0.1374,0.0388,0.153,0.209
7.316,-0.3031,0.2289,-0.2199,0.439
7.32,-0.2375,0.1485,-0.1244,0.307
7.325,0.0271,-0.1304,0.2149,0.253
7.331,-0.0134,-0.254,0.251,0.357
7.335,-0.4682,-0.0935,-0.0974,0.487
7.339,-0.749,-0.0147,-0.3334,0.82
7.345,-0.7253,-0.0533,-0.2207,0.76
7.351,-0.5623,-0.2162,0.0472,0.604
7.357,-0.5565,-0.2979,0.1764,0.655
7.361,-0.7218,-0.2532,0.0617,0.767
7.364,-0.9552,-0.1848,-0.0363,0.974
7.369,-2.0263,0.0769,0.1809,2.036
7.374,-0.0628,-0.4959,0.4384,0.665
7.379,-0.5258,0.16,-0.0664,0.554
7.384,-0.4745,0.2294,-0.5171,0.738
7.389,-0.9416,0.1625,-0.5875,1.122
7.394,-1.189,0.0887,-0.4841,1.287
7.398,-1.4177,0.1038,-0.3339,1.46
7.403,-1.5049,0.153,-0.1865,1.524
7.408,-1.4836,0.1881,-0.0916,1.498
7.412,-1.4976,0.3383,-0.0898,1.538
7.417,-1.195,0.3428,0.1584,1.253
7.422,-0.9208,0.1894,0.4089,1.025
7.427,-0.7183,0.0671,0.3799,0.815
7.431,-0.5751,0.0546,0.2604,0.634
7.436,-0.4668,0.0706,0.1485,0.495
7.441,-0.4128,0.0528,0.0275,0.417
7.446,-0.38,0.0015,-0.1241,0.4
7.451,-0.3735,-0.0594,-0.2442,0.45
7.456,-0.4455,-0.0844,-0.2901,0.538
7.461,-0.5651,-0.1237,-0.2696,0.638
7.465,-0.861,-0.1677,-0.1326,0.887
7.47,-0.5448,-0.3192,-0.1278,0.644
7.475,-0.8244,-0.2074,-0.2738,0.893
7.48,-1.1045,-0.0741,-0.2812,1.142
7.485,-1.7106,0.1144,-0.5279,1.794
7.49,-1.9161,0.1622,-0.4522,1.975
7.497,-2.5273,0.4495,-0.4992,2.615
7.5,-2.9302,0.4027,-0.5923,3.016
7.505,-1.6702,-0.0256,0.0214,1.671
7.51,-0.4787,-0.123,0.7569,0.904
7.515,-0.1621,0.0331,0.7568,0.775
7.521,-0.4401,0.1314,0.3395,0.571
7.524,-0.8573,0.2148,-0.0654,0.886
7.531,-1.3569,0.2407,-0.2742,1.405
7.535,-1.6653,0.1138,-0.3681,1.709
7.539,-1.6094,-0.1942,-0.2323,1.638
7.544,-1.8279,-0.4775,0.5562,1.969
7.549,-0.8608,-0.8078,0.3918,1.244
7.553,-0.6929,-0.306,0.2376,0.794
7.558,-0.2304,-0.056,0.1141,0.263
7.563,0.0798,0.0501,0.0358,0.101
7.568,0.2265,0.1077,0.0174,0.251
7.573,0.4705,0.0572,0.0114,0.474
7.578,0.8764,-0.0057,0.1875,0.896
7.583,1.2603,-0.0215,0.407,1.325
7.588,1.2903,-0.0716,0.5122,1.39
7.592,0.7327,-0.0698,0.1329,0.748
7.597,0.0033,-0.114,-0.3894,0.406
7.602,-5.5664,1.8493,-2.7687,6.486
7.607,2.1931,-2.5786,-0.4255,3.412
7.611,1.8222,-1.0476,4.6054,5.062
7.616,1.8586,-0.5706,2.1609,2.907
7.62,-9.4289,2.6222,-7.0239,12.046
7.627,5.2342,-3.221,2.3309,6.573
7.63,-8.4715,2.8503,-1.2195,9.021
7.635,-0.8661,-0.503,-0.9264,1.364
7.64,7.5447,-3.3023,3.8467,9.09
7.645,-7.7149,2.2835,-3.6987,8.855
7.649,-5.1239,1.7805,-1.2257,5.561
7.654,7.22,-1.7851,4.1809,8.532
7.659,-4.3157,0.6689,-2.9927,5.294
7.664,4.9847,-0.3869,4.7652,6.907
7.669,1.6399,1.8025,1.4344,2.828
7.674,-0.4041,1.3986,-1.637,2.191
7.679,-0.9054,0.3538,-1.5146,1.8
7.683,-0.1307,-0.369,0.305,0.496
7.688,0.6246,-0.6098,1.2099,1.492
7.693,0.9369,-0.7783,0.9582,1.55
7.699,1.186,-0.6104,0.4523,1.408
7.705,0.1104,-0.1163,-0.3212,0.359
7.71,0.8515,-0.8903,-0.2525,1.258
7.715,-0.3934,-0.7912,-0.2967,0.932
7.718,-1.0326,-0.9016,-0.7666,1.571
7.724,-1.2686,-0.9605,-0.8025,1.782
7.727,-16.0207,3.7956,-7.021,17.899
7.732,-2.1724,-3.722,-4.5656,6.278
7.737,-2.511,-2.9919,1.8448,4.32
7.742,-6.0528,0.2296,2.8783,6.706
7.747,0.314,-2.1858,-0.6649,2.306
7.752,-3.5778,1.4582,0.8493,3.956
7.757,8.2973,-1.6424,6.7948,10.85
7.762,6.7501,2.9098,7.8394,10.746
7.766,-2.3207,5.8368,-1.92,6.568
7.772,-3.5899,1.8136,-6.207,7.396
7.776,-0.432,-0.3136,-0.5545,0.77
7.782,0.4938,0.0883,3.7046,3.738
7.786,1.5129,-0.1851,2.0602,2.563
7.79,1.8154,0.0192,0.1526,1.822
7.796,-5.1122,0.4962,-5.0078,7.173
7.8,-6.2674,0.8001,-4.56,7.792
7.805,1.6452,-0.2677,4.5684,4.863
7.81,-2.5937,-1.2856,-1.6743,3.344
7.814,-2.3199,-1.8406,0.2196,2.97
7.819,-6.8048,2.5356,1.2889,7.375
7.824,-0.5994,-0.1477,-0.914,1.103
7.829,10.1644,-5.2604,5.0831,12.523
7.834,-11.8759,5.6908,0.4016,13.175
7.839,2.0367,-0.8078,-1.7986,2.835
7.843,7.1778,-3.8424,3.2105,8.752
7.848,-5.3486,2.4901,-0.5289,5.924
7.853,10.1239,-0.818,6.6011,12.113
7.859,-7.0297,2.4023,-6.7841,10.06
7.864,-1.3809,0.091,-1.3867,1.959
7.869,6.9359,-1.8752,4.3016,8.374
7.874,1.495,2.7473,2.6396,4.093
7.877,-4.694,-0.3918,-8.8313,10.009
7.882,5.3023,-2.3175,4.8411,7.545
7.887,1.7642,0.3496,2.8101,3.336
7.893,-8.6543,0.8642,-8.966,12.491
7.898,6.2809,-3.9262,4.5585,8.697
7.903,-10.968,3.7196,-3.3608,12.059
7.907,8.4064,-4.3751,1.8609,9.658
7.913,-1.0973,-0.0715,0.2546,1.129
7.917,4.3533,0.5023,4.4028,6.212
7.923,0.7369,1.8282,0.2037,1.982
7.927,-0.0476,0.2399,-1.3404,1.362
7.931,-0.2199,-0.8635,-0.4813,1.013
7.938,0.1405,-1.0732,0.3308,1.132
7.942,0.2337,-0.6728,0.4314,0.833
7.945,-0.0601,-0.3688,-0.1816,0.415
7.951,-14.3513,4.0386,-6.9831,16.463
7.956,7.6221,-7.4221,0.2185,10.641
7.96,-2.2026,0.4643,5.0952,5.57
7.965,-2.0947,1.2492,0.1578,2.444
7.971,-0.3633,0.2723,-0.9128,1.02
7.975,0.1151,-0.249,0.4975,0.568
7.979,-0.4931,0.406,1.2539,1.407
7.984,-0.5853,0.8906,0.8315,1.352
7.989,-0.8966,0.8072,-0.03,1.207
7.994,-1.2459,0.5058,-0.3323,1.385
8,-1.6426,0.3843,-0.2123,1.7
8.004,-1.7842,0.3541,-0.1315,1.824
8.008,-1.9067,0.3241,-0.1637,1.941
8.013,-1.9218,0.1653,-0.1104,1.932
8.018,-1.8355,0.1219,0.2077,1.851
8.024,-1.6405,0.1505,0.5564,1.739
8.029,-1.604,0.2342,0.6613,1.751
8.033,-5.0597,1.6514,-0.8896,5.396
8.038,0.2102,-2.0655,0.0194,2.076
8.042,-0.8526,0.4357,2.5917,2.763
8.048,-0.6025,1.6529,1.4194,2.261
8.051,0.331,1.9046,0.3718,1.969
8.056,-0.3347,0.6375,0.3093,0.784
8.061,-4.0595,0.209,-1.6574,4.39
8.066,-1.2717,-2.9469,0.0872,3.211
8.071,0.849,-1.6105,1.8215,2.575
8.076,0.157,1.2171,0.4359,1.302
8.08,0.7795,0.7011,-0.4753,1.151
8.086,-6.6859,2.1138,-3.9612,8.054
8.09,5.1559,-4.011,1.5206,6.707
8.096,1.6156,-0.5247,3.3904,3.792
8.103,-0.2713,1.2397,1.4844,1.953
8.105,0.2948,0.5257,-0.4307,0.741
8.112,1.3576,-0.4192,-0.7058,1.586
8.115,0.8548,-0.5408,-0.5231,1.139
8.12,0.2658,-0.5569,-0.53,0.813
8.125,0.286,-0.7303,-0.4367,0.898
8.13,0.2152,-0.6501,-0.3966,0.791
8.135,0.1306,-0.527,-0.2308,0.59
8.14,-8.9766,2.9391,-4.4349,10.435
8.145,1.3176,-3.9375,-1.0047,4.272
8.148,0.2479,-1.8857,0.8291,2.075
8.153,-2.6615,0.9773,1.5068,3.211
8.159,4.3002,-0.746,4.6346,6.366
8.163,0.2451,1.8757,2.6514,3.257
8.168,-1.0135,1.5789,-0.2946,1.899
8.173,0.2688,0.1761,-0.4397,0.545
8.178,0.8725,-0.3887,0.1736,0.971
8.183,0.0905,-0.097,0.2182,0.255
8.187,-0.2637,0.1091,-0.0809,0.297
8.193,0.1269,-0.0047,-0.2012,0.238
8.197,0.2794,-0.2955,-0.1628,0.438
8.202,0.0391,-0.3855,-0.1086,0.402
8.207,-0.3066,-0.5045,-0.2654,0.647
8.212,-0.7892,-0.4445,-0.5035,1.036
8.217,-1.0222,-0.4729,-0.5819,1.268
8.223,-1.0162,-0.4463,-0.3501,1.164
8.226,-1.0257,-0.1157,-0.0641,1.034
8.231,-0.9413,0.313,0.2401,1.021
8.236,-0.6388,0.6101,0.3863,0.964
8.241,-0.4282,0.8258,0.4345,1.027
8.245,-0.4354,0.9935,0.5207,1.203
8.257,-0.6385,0.9363,0.485,1.233
8.258,-0.7677,0.6881,0.3346,1.084
8.26,-0.9738,0.4237,0.1276,1.07
8.265,-1.1473,0.2003,0.0241,1.165
8.27,-1.097,0.0158,-0.0069,1.097
8.275,-0.8544,-0.0775,0.0106,0.858
8.28,-0.7534,0.023,0.0045,0.754
8.284,-0.5838,0.1306,0.0152,0.598
8.289,-0.3572,0.2119,-0.0076,0.415
8.293,-0.2216,0.2906,-0.0377,0.367
8.298,-0.1574,0.2856,-0.0656,0.333
8.304,-0.3103,0.278,-0.0722,0.423
8.309,-0.2909,0.249,-0.1029,0.396
8.314,-0.1686,0.0957,-0.0716,0.207
8.318,-0.2588,-0.024,-0.0116,0.26
8.323,-0.3364,-0.1366,-0.0614,0.368
8.328,-0.3229,-0.1799,-0.1158,0.387
8.333,-0.1657,-0.302,-0.0938,0.357
8.338,-0.3379,-0.2759,0.0405,0.438
8.343,-6.0832,1.7744,-3.2766,7.134
8.347,0.0302,-1.943,-1.5907,2.511
8.352,-1.1328,-1.1335,1.9215,2.502
8.357,-1.8206,0.3225,1.7473,2.544
8.362,-0.6846,0.2585,0.546,0.913
8.367,-0.8306,0.1154,0.0532,0.84
8.372,-0.7796,-0.0205,-0.0664,0.783
8.376,-0.745,0.0516,-0.4565,0.875
8.381,-1.0617,0.2336,-0.6599,1.272
8.386,-0.5734,0.1574,-0.3516,0.691
8.391,0.1628,0.2389,0.7438,0.798
8.396,-1.1666,0.5688,-2.3058,2.646
8.401,2.6805,-1.6466,0.2004,3.152
8.406,5.6574,-1.8409,7.1045,9.267
8.41,-7.9321,4.2321,-5.2905,10.432
8.415,7.2695,-3.8045,-0.7267,8.237
8.42,-1.0629,0.3733,0.7815,1.371
8.425,1.2721,-1.1699,-2.0087,2.65
8.43,-0.3924,-0.3858,-0.7479,0.929
8.434,0.3775,-0.884,0.2782,1.001
8.44,2.8538,-1.1886,4.1533,5.178
8.444,1.7825,-0.0516,2.5899,3.144
8.45,-2.4834,1.3522,-3.8871,4.807
8.454,5.8315,-2.2439,4.3159,7.594
8.459,0.3976,0.6191,0.6334,0.971
8.464,1.5448,0.3187,-1.837,2.421
8.469,1.008,0.4135,-0.8429,1.377
8.474,0.0826,0.4549,0.2015,0.504
8.478,-0.5351,0.6354,0.2174,0.859
8.483,-1.0665,0.3499,0.0917,1.126
8.488,-1.8232,-0.1744,-0.0512,1.832
8.493,-2.3899,-0.3992,-0.1726,2.429
8.499,-2.8498,-0.3844,-0.0809,2.877
8.503,-3.0967,-0.2447,0.0873,3.108
8.509,-3.4311,-0.0157,0.3587,3.45
8.512,-3.4835,0.0469,0.3964,3.506
8.518,-3.3518,-0.0066,0.4207,3.378
8.522,-3.054,-0.0235,0.3956,3.08
8.527,-2.8443,0.1535,0.2499,2.859
8.532,-2.4977,0.2493,0.0262,2.51
8.537,-2.0089,0.1474,-0.1347,2.019
8.541,-1.7021,0.0915,-0.3479,1.74
8.546,-1.495,0.1221,-0.5682,1.604
8.551,-1.2172,0.1505,-0.6502,1.388
8.556,-0.8835,0.1123,-0.5892,1.068
8.561,-0.4625,0.0099,-0.5358,0.708
8.566,-0.1471,-0.0206,-0.4734,0.496
8.57,0.0416,0.0349,-0.3875,0.391
8.575,0.2043,0.0998,-0.278,0.359
8.58,0.3197,0.2099,-0.2046,0.434
8.585,0.364,0.2599,-0.1432,0.47
8.59,0.3829,0.2331,-0.1225,0.465
8.594,0.3287,0.211,-0.1546,0.42
8.599,0.1729,0.1121,-0.1727,0.269
8.607,0.1306,0.0705,-0.1481,0.21
8.609,-0.0016,0.0216,-0.1285,0.13
8.614,-0.2645,-0.013,-0.1427,0.301
8.62,-0.4026,-0.0882,-0.0735,0.419
8.624,-0.4116,-0.1848,0.0721,0.457
8.629,-0.3872,-0.2382,0.0743,0.461
8.634,-0.4441,-0.2558,0.0813,0.519
8.641,-0.4004,-0.2924,0.1862,0.53
8.643,-0.3398,-0.3076,0.26,0.527
8.648,-0.3197,-0.2966,0.2623,0.509
8.653,-0.3568,-0.3334,0.1453,0.509
8.657,-0.3867,-0.3869,-0.0215,0.547
8.662,-0.4289,-0.3663,-0.1185,0.576
8.667,-0.4095,-0.3885,-0.1627,0.587
8.672,-0.3285,-0.4106,-0.0942,0.534
8.678,-0.274,-0.3657,-0.0568,0.46
8.682,-0.246,-0.3208,-0.0673,0.41
8.689,-0.4141,-0.1971,-0.1545,0.484
8.692,-0.556,-0.1307,-0.1796,0.599
8.696,-0.5194,-0.1957,-0.2047,0.592
8.701,-0.5598,-0.2485,-0.139,0.628
8.707,-0.5243,-0.2914,0.0441,0.602
8.714,-0.2598,-0.2794,0.2608,0.462
8.716,-0.1077,-0.0739,0.3966,0.418
8.72,-0.2397,0.167,0.3109,0.427
8.725,-0.5318,0.2163,0.0324,0.575
8.73,-0.798,0.2013,-0.2884,0.872
8.735,-0.819,0.1101,-0.2481,0.863
8.741,-0.8343,0.0816,-0.0595,0.84
8.745,-1.002,0.1779,-0.0928,1.022
8.75,-0.9276,0.1384,-0.0565,0.94
8.756,-0.831,0.1639,0.1881,0.868
8.761,-0.8838,0.7058,0.323,1.176
8.764,-0.5,0.1712,0.3793,0.651
8.769,-0.907,0.2322,0.5357,1.079
8.774,-1.1019,1.2105,1.3077,2.095
8.779,-0.165,-0.2276,1.3501,1.379
8.784,0.8279,-0.7719,0.7758,1.372
8.789,0.6952,0.0074,-0.0556,0.697
8.793,1.0042,0.1565,-0.7742,1.278
8.798,0.9944,0.3172,-1.2226,1.608
8.804,0.587,0.3419,-1.1064,1.298
8.808,0.2299,0.0894,-0.6971,0.739
8.813,0.1651,-0.2701,-0.4165,0.523
8.817,-0.0043,-0.4547,-0.3554,0.577
8.822,-0.3405,-0.4526,-0.234,0.613
8.827,-0.2562,-0.5076,-0.073,0.573
8.832,0.1817,-0.5815,0.0852,0.615
8.839,0.2015,-0.3259,0.2843,0.477
8.842,0.1122,-0.035,0.2807,0.304
8.846,0.0621,0.0711,0.0532,0.108
8.851,-0.0949,0.1961,-0.1357,0.257
8.856,-0.3782,0.3328,-0.145,0.524
8.861,-0.5922,0.4216,-0.0827,0.732
8.866,-0.7515,0.446,0.0251,0.874
8.871,-1.1074,0.5112,0.0396,1.22
8.876,-1.5116,0.5598,0.0229,1.612
8.88,-1.5244,0.4175,0.226,1.597
8.886,-1.6865,0.3283,0.2284,1.733
8.89,-1.632,0.2012,0.2505,1.663
8.895,-1.3323,-0.0116,0.345,1.376
8.9,-1.096,-0.0758,0.2537,1.128
8.905,-0.813,-0.0323,0.094,0.819
8.91,-0.6047,0.0901,-0.0007,0.611
8.914,-0.4826,0.1311,-0.0712,0.505
8.921,-0.3482,0.0882,-0.2012,0.412
8.925,-0.2494,0.0309,-0.3432,0.425
8.929,-0.1357,-0.0623,-0.3946,0.422
8.934,0.2176,-0.1627,0.7244,0.774
8.939,0.0442,-0.1128,0.8034,0.813
8.945,-0.1393,-0.3527,-0.4318,0.575
8.948,0.0448,-0.5633,-0.9554,1.11
8.954,0.4221,-0.3267,-0.3425,0.634
8.959,0.1241,-0.1455,-0.1479,0.242
8.963,0.2673,-0.4261,-0.147,0.524
8.969,0.2836,-0.618,-0.1595,0.698
8.974,0.1154,-0.5562,-0.3797,0.683
8.977,0.0934,-0.3678,-0.3926,0.546
8.982,0.2132,-0.2204,-0.1222,0.33
8.988,0.3266,-0.145,0.1666,0.394
8.992,0.3235,-0.0461,0.2401,0.406
8.997,0.2783,0.062,0.247,0.377
9.007,0.2006,0.1482,0.2684,0.366
9.008,0.0643,0.1288,0.2657,0.302
9.012,-0.0831,0.0806,0.2294,0.257
9.019,-0.1963,0.03,0.1234,0.234
9.021,-0.2661,-0.0396,-0.0115,0.269
9.026,-0.3502,-0.035,-0.1491,0.382
9.032,-0.413,-0.059,-0.1745,0.452
9.046,-0.3662,-0.1353,-0.0308,0.392
9.046,-0.3195,-0.2091,0.244,0.453
9.046,-0.2059,-0.2851,0.4346,0.559
9.052,-0.0827,-0.3492,0.446,0.572
9.056,0.1509,-0.509,0.4674,0.707
9.061,-0.2749,-0.2744,0.3361,0.514
9.064,-1.3217,0.1512,-0.4596,1.407
9.07,0.5652,-0.6616,0.6801,1.104
9.075,1.5165,-1.0316,1.4257,2.323
9.079,-0.7532,-0.1752,-0.048,0.775
9.084,-0.0372,-0.2299,-0.3347,0.408
9.089,-10.4648,3.6117,-6.7908,12.987
9.094,2.8544,-1.9401,3.9681,5.259
9.099,11.9743,-5.37,10.6746,16.916
9.104,-5.202,0.9313,-2.7533,5.959
9.108,-6.0985,2.5599,-5.0754,8.337
9.113,1.9229,0.4314,-1.6972,2.601
9.119,3.0583,-0.2183,0.3715,3.089
9.123,-0.0123,0.5416,0.5991,0.808
9.127,-0.8923,0.6098,0.5509,1.213
9.132,-0.1564,0.1045,0.4096,0.451
9.138,-0.2524,0.0443,0.0502,0.261
9.144,-0.3327,0.0294,-0.0187,0.335
9.148,-0.2806,0.0002,0.122,0.306
9.152,-0.5555,0.0116,0.2217,0.598
9.157,-10.0244,3.0057,-5.6204,11.879
9.162,-3.1441,-0.3042,4.3279,5.358
9.167,-8.7914,1.4092,1.293,8.997
9.171,7.1337,-4.536,11.4399,14.224
9.177,3.4224,-3.3442,0.2304,4.791
9.181,-4.8599,0.723,-6.9452,8.507
9.186,-2.5744,0.6216,-3.0197,4.017
9.191,-4.5871,1.4518,-3.5154,5.959
9.195,0.3231,-0.4299,2.1623,2.228
9.201,-1.7252,0.3004,-0.2512,1.769
9.207,5.873,-2.479,4.1517,7.607
9.21,5.5563,-1.9182,0.3863,5.891
9.224,-0.4576,0.9395,-3.268,3.431
9.225,-0.0192,1.2178,-1.484,1.92
9.227,1.3978,0.9444,-0.313,1.716
9.239,1.1985,0.9748,0.1125,1.549
9.24,0.5157,0.8948,0.5421,1.166
9.24,0.3823,0.4108,0.8467,1.016
9.247,0.2621,0.0872,0.8191,0.864
9.249,-0.0862,0.1317,0.5891,0.61
9.254,-0.3282,0.1376,0.3504,0.499
9.258,-0.462,0.0407,0.1003,0.475
9.264,-0.5838,-0.1492,-0.1115,0.613
9.268,-0.7202,-0.3388,-0.1326,0.807
9.275,-0.9361,-0.3868,0.0729,1.015
9.278,-1.1885,-0.3843,0.3666,1.302
9.283,-1.1622,-0.4008,0.5746,1.357
9.289,-1.6607,-0.0586,0.8479,1.866
9.293,-1.5253,-0.1873,0.5539,1.634
9.299,-0.9474,-0.1435,0.3619,1.024
9.302,-0.6932,-0.1642,0.1324,0.725
9.308,-0.389,-0.2328,0.097,0.464
9.312,-0.2353,-0.2775,-0.0411,0.366
9.317,-0.2342,-0.2506,-0.1933,0.394
9.321,-0.2806,-0.1711,-0.1902,0.38
9.327,-0.1789,-0.0416,-0.1824,0.259
9.331,-0.1302,0.1332,-0.2893,0.344
9.336,-0.1273,0.3032,-0.4225,0.535
9.341,-0.0669,0.3869,-0.4699,0.612
9.346,-6.0122,2.5426,-4.0454,7.68
9.351,-7.3629,2.2259,-0.9306,7.748
9.355,2.3657,-1.7149,5.1053,5.882
9.361,-3.9907,-0.1288,-0.5474,4.03
9.365,-0.4218,-1.3719,1.7471,2.261
9.37,-0.9844,-1.1178,0.3515,1.53
9.375,7.4882,-3.7179,4.2743,9.39
9.38,3.9559,-1.5678,-1.0827,4.391
9.385,-3.8404,1.9822,-5.211,6.77
9.39,-8.7116,4.4478,-5.9965,11.473
9.395,-2.1123,2.2218,-1.7785,3.544
9.399,3.2311,-0.986,2.4032,4.146
9.404,6.2016,-3.09,4.8586,8.463
9.409,0.0803,-0.8322,0.6007,1.029
9.413,5.1033,-1.9906,2.2717,5.93
9.418,-2.1194,1.4595,-4.6184,5.287
9.423,-8.4885,5.0598,-7.8411,12.615
9.429,10.2748,-1.5779,4.3784,11.28
9.433,-5.3138,2.7725,-4.451,7.466
9.438,8.9843,-3.3525,6.6186,11.652
9.443,1.6984,-1.2364,1.2511,2.445
9.447,-2.978,1.0539,-2.4335,3.988
9.452,2.1365,0.3675,-1.1751,2.466
9.458,4.6874,-0.1703,-0.1396,4.693
9.462,-0.4722,1.0675,-2.1727,2.466
9.467,4.1781,-0.6738,0.8424,4.315
9.472,-0.9527,0.4711,-2.0508,2.31
9.477,3.9424,-1.3893,0.6122,4.225
9.481,1.9442,-1.1073,0.071,2.239
9.486,0.0223,-0.4028,0.1452,0.429
9.491,0.0926,-0.0955,0.1605,0.208
9.496,0.0471,0.0775,0.2005,0.22
9.501,-0.5344,0.1109,0.425,0.692
9.507,-1.3102,0.1647,0.7647,1.526
9.51,-2.1355,0.2409,1.2772,2.5
9.515,-3.1674,-0.0878,1.6265,3.562
9.52,-3.9311,-0.636,1.8341,4.384
9.525,-4.678,-0.8869,1.7992,5.09
9.53,-5.2161,-0.8834,1.6631,5.546
9.535,-5.3487,-0.8026,1.5426,5.624
9.541,-5.2325,-0.6848,1.3562,5.449
9.544,-4.8656,-0.4729,1.099,5.011
9.549,-3.9345,-0.3558,0.7157,4.015
9.554,-3.1431,-0.2357,0.4255,3.181
9.559,-2.461,-0.0316,0.3473,2.486
9.565,-1.9326,0.2228,0.2655,1.963
9.568,-1.4068,0.4867,0.0537,1.49
9.574,-0.7084,0.6119,-0.2837,0.978
9.578,-0.088,0.6152,-0.6729,0.916
9.583,0.2926,0.6234,-1.1078,1.304
9.588,0.625,0.5817,-1.4942,1.721
9.593,1.2659,0.5355,-1.4712,2.013
9.598,1.8312,0.5347,-1.2659,2.289
9.602,2.0038,0.5359,-0.9908,2.299
9.607,1.9826,0.532,-0.7034,2.17
9.612,1.8733,0.4441,-0.4636,1.98
9.617,1.671,0.332,-0.2423,1.721
9.623,1.3996,0.2341,-0.1156,1.424
9.627,1.073,0.1335,-0.0354,1.082
9.632,0.7651,0.0686,-0.0062,0.768
9.636,0.4275,-0.0226,0.075,0.435
9.641,0.1407,-0.0563,0.1655,0.224
9.646,-0.1769,-0.047,0.2632,0.321
9.651,-0.4229,-0.0019,0.2989,0.518
9.656,-0.6025,-0.0068,0.3256,0.685
9.661,-0.7133,-0.0259,0.3024,0.775
9.665,-0.7007,-0.0687,0.2967,0.764
9.67,-0.6147,-0.1067,0.2796,0.684
9.675,-0.7113,-0.0202,0.1007,0.719
9.68,-0.622,-0.0173,0.08,0.627
9.687,-0.4403,-0.0502,0.0142,0.443
9.69,-0.4288,-0.0257,-0.1468,0.454
9.695,-0.42,-0.025,-0.248,0.488
9.7,-0.3777,0.0881,-0.072,0.394
9.709,-0.2566,-0.0189,0.2188,0.338
9.711,-0.1714,-0.2119,-0.1616,0.317
9.714,-0.3799,-0.3092,-0.5656,0.748
9.72,-0.3753,-0.3895,-0.48,0.723
9.725,-0.2415,-0.3788,-0.2996,0.54
9.729,-0.1337,-0.3061,-0.0384,0.336
9.734,0.2012,-0.248,0.2611,0.412
9.74,-0.4103,0.1278,-0.2037,0.476
9.743,-0.6051,0.233,-0.3335,0.729
9.749,-0.1948,-0.0108,0.062,0.205
9.759,-0.1792,-0.1444,0.1561,0.278
9.759,-0.4218,-0.1321,-0.0267,0.443
9.762,-0.4277,-0.1389,-0.1613,0.478
9.768,-0.3452,-0.1313,-0.2674,0.456
9.782,-0.4178,0.0961,-0.2782,0.511
9.783,-0.1289,-0.2146,-0.0982,0.269
9.783,-0.1173,-0.3457,-0.0641,0.371
9.787,0.0304,-0.5221,-0.0273,0.524
9.792,0.3299,-0.5045,-0.1072,0.612
9.797,0.4995,-0.3124,-0.3063,0.664
9.801,0.6904,-0.1635,-0.4552,0.843
9.807,-1.8882,0.7524,-2.0557,2.891
9.811,3.6629,-1.2269,1.8845,4.298
9.816,-0.1237,-0.1119,-0.2759,0.322
9.821,-0.5153,0.1319,-1.0135,1.145
9.825,0.8394,-0.1074,-0.1031,0.852
9.831,0.5577,-0.1485,0.2245,0.619
9.837,-0.2959,-0.1229,0.2647,0.416
9.841,-0.5415,-0.0687,0.193,0.579
9.845,-0.4571,-0.0337,0.2147,0.506
9.85,-0.4324,-0.0035,0.504,0.664
9.855,-0.5916,-0.0021,0.3585,0.692
9.859,-0.8515,0.0662,0.1038,0.86
9.864,-0.8226,0.1299,0.0503,0.834
9.869,-0.7088,0.1266,0.0788,0.724
9.874,-0.7682,0.1523,-0.0069,0.783
9.878,-0.6998,0.1782,-0.0898,0.728
9.884,-0.5774,0.1899,-0.0961,0.615
9.888,-0.4797,0.1827,-0.0621,0.517
9.893,-1.0756,0.4122,-0.4107,1.223
9.898,-1.5799,0.1996,-0.3362,1.628
9.903,2.1759,-1.0285,2.2184,3.273
9.908,-4.33,1.0089,-1.3304,4.641
9.912,2.0636,-0.7195,1.8534,2.865
9.917,-2.3812,0.9377,-0.9237,2.721
9.922,-0.0701,-0.0068,0.2653,0.275
9.927,2.2506,-0.7329,1.7927,2.969
9.932,-1.0571,0.494,-0.3796,1.227
9.937,0.1617,0.4864,-0.5558,0.756
9.942,1.423,0.1824,-0.1329,1.441
9.947,1.1126,0.0862,-0.165,1.128
9.951,0.6605,0.0902,-0.2425,0.709
9.956,-1.6236,0.9688,-1.8373,2.636
9.961,-3.1797,0.8358,-1.7988,3.748
9.966,7.9014,-3.1925,5.3839,10.08
9.972,-3.1058,0.5348,-0.0574,3.152
9.975,-5.0523,1.3409,-2.5031,5.796
9.98,5.8511,-1.3305,2.8647,6.649
9.986,-1.1033,0.6983,-0.4989,1.398
9.99,-0.6168,0.4477,-0.6407,0.996
9.995,1.2786,0.1329,-0.3643,1.336
10,0.9487,0.0858,-0.3372,1.01
10.005,0.2091,0.0338,-0.3939,0.447
10.01,0.1129,-0.0467,-0.4576,0.474
10.014,0.0569,0.0905,-0.7151,0.723
10.019,0.1803,0.0986,-0.6629,0.694
10.026,-0.1017,0.0924,-0.5982,0.614
10.029,-0.2559,0.0025,-0.2655,0.369
10.034,-0.5908,-0.0107,0.0271,0.592
10.039,-0.884,-0.0383,0.328,0.944
10.043,-1.2165,-0.109,0.6114,1.366
10.048,-1.6101,-0.1631,0.8304,1.819
10.053,-1.7834,-0.3415,0.938,2.044
10.058,-2.0145,-0.4648,0.8606,2.239
10.063,-2.0483,-0.6165,0.7684,2.273
10.068,-2.0886,-0.6865,0.5487,2.266
10.075,-1.9709,-0.6773,0.2492,2.099
10.078,-1.7482,-0.5768,-0.0637,1.842
10.084,-1.3414,-0.3803,-0.2448,1.416
10.088,-0.963,-0.1431,-0.3018,1.019
10.092,-0.5885,0.0917,-0.2445,0.644
10.097,-0.2534,0.2499,-0.0825,0.365
10.101,-0.0194,0.3794,0.0507,0.383
10.108,0.1498,0.4393,0.2079,0.509
10.111,0.3768,0.4344,0.2698,0.635
10.116,0.4683,0.4365,0.2101,0.674
10.121,0.5178,0.424,0.0405,0.67
10.126,0.4799,0.3921,-0.1387,0.635
10.131,0.5865,0.3195,-0.2585,0.716
10.135,0.5918,0.2945,-0.3718,0.758
10.141,0.5629,0.2646,-0.4118,0.746
10.145,0.5497,0.2129,-0.4501,0.742
10.15,0.4732,0.1826,-0.5104,0.72
10.155,0.3807,0.1164,-0.5134,0.65
10.16,0.2718,0.0502,-0.452,0.53
10.165,0.1453,-0.0706,-0.2993,0.34
10.169,0.0673,-0.1218,-0.1625,0.214
10.175,0.0995,-0.1844,0.0659,0.22
10.179,0.1119,-0.1919,0.2252,0.316
10.185,0.0395,-0.1232,0.3004,0.327
10.189,-0.0138,-0.1004,0.3389,0.354
10.194,-0.1745,-0.1019,0.405,0.453
10.199,-0.3738,-0.1348,0.5157,0.651
10.204,-0.584,-0.1272,0.49,0.773
10.209,-0.7701,-0.1315,0.4024,0.879
10.213,-0.804,-0.1787,0.3154,0.882
10.218,-0.7911,-0.2448,0.1861,0.849
10.227,-0.8511,-0.2628,0.0574,0.893
10.228,-0.8186,-0.2735,-0.059,0.865
10.232,-0.7532,-0.2362,-0.1631,0.806
10.237,-0.6714,-0.2014,-0.1835,0.725
10.244,-4.1859,0.7822,-2.4098,4.893
10.248,-0.0996,-1.1701,0.0913,1.178
10.252,2.2896,-1.8178,3.9388,4.905
10.259,-4.7194,0.2762,0.6458,4.771
10.262,-1.0083,-0.2075,-0.4292,1.115
10.267,1.3304,-0.1621,-0.2873,1.371
10.274,0.3045,0.1317,-0.1591,0.368
10.276,0.2322,0.1291,-0.2967,0.398
10.282,1.1031,0.1696,-0.5486,1.244
10.286,1.5965,0.3653,-0.7549,1.803
10.291,1.5657,0.4552,-0.8853,1.855
10.297,1.5013,0.4036,-0.9426,1.818
10.3,1.4558,0.3256,-0.9489,1.768
10.305,1.2762,0.1996,-0.8496,1.546
10.31,0.9003,0.0305,-0.7476,1.171
10.315,0.6147,-0.1312,-0.487,0.795
10.32,0.2179,-0.2785,-0.3111,0.471
10.324,-0.044,-0.4042,-0.0065,0.407
10.329,-0.2834,-0.4821,0.1953,0.592
10.335,-0.639,-0.5338,0.3401,0.899
10.339,-0.9296,-0.6142,0.4255,1.193
10.344,-1.1298,-0.7852,0.502,1.465
10.349,-1.3854,-0.834,0.4454,1.677
10.354,-1.553,-0.8085,0.4444,1.806
10.358,-1.7276,-0.6752,0.5304,1.929
10.364,-1.5721,-0.6344,0.6415,1.813
10.368,-1.2668,-0.3735,0.596,1.449
10.373,-1.014,0.0304,0.4082,1.094
10.379,-0.9245,0.5098,0.1495,1.066
10.387,-0.6945,0.6589,0.1067,0.963
10.388,-0.3967,0.729,0.06,0.832
10.393,-0.1335,0.7992,0.1092,0.818
10.399,0.1293,0.8191,0.0844,0.834
10.402,0.3489,0.7697,-0.0026,0.845
10.409,0.4825,0.7107,-0.121,0.868
10.412,0.607,0.6399,-0.2448,0.915
10.419,0.7558,0.5404,-0.3836,1.005
10.422,0.7069,0.4577,-0.4609,0.96
10.427,0.6275,0.2986,-0.5389,0.879
10.431,0.5391,0.1517,-0.5362,0.775
10.437,0.4058,0.0025,-0.4721,0.622
10.442,0.2968,-0.1536,-0.3201,0.463
10.447,0.1595,-0.257,-0.1856,0.355
10.453,-0.0086,-0.2933,-0.1017,0.311
10.456,-0.1383,-0.3272,-0.0276,0.356
10.461,-0.311,-0.3204,0.0344,0.448
10.465,-0.4022,-0.2921,0.1061,0.508
10.471,-0.5698,-0.228,0.1589,0.634
10.476,-0.9525,-0.1711,0.0042,0.968
10.48,-0.969,-0.2936,0.0625,1.014
10.486,-1.0379,-0.4183,0.2834,1.154
10.491,-1.3314,-0.39,0.2729,1.414
10.495,-1.3121,-0.2948,0.1582,1.354
10.499,-1.1833,-0.2117,0.0849,1.205
10.505,-1.1054,-0.107,0.11,1.116
10.511,-1.021,-0.0168,0.121,1.028
10.514,-0.9468,0.0662,0.0606,0.951
10.519,-0.7156,0.1158,-0.0831,0.73
10.524,-0.6116,0.1701,-0.2362,0.677
10.53,-3.2297,0.3799,-2.3812,4.031
10.533,1.9287,-1.2555,1.7509,2.892
10.538,-0.982,-0.2988,2.0055,2.253
10.543,-3.492,0.7359,-1.7621,3.98
10.547,1.9511,-0.3333,-0.606,2.07
10.558,0.2781,-0.2807,-0.5175,0.651
10.558,0.039,-0.3931,0.6722,0.78
10.563,-0.7439,0.0636,-0.6222,0.972
10.568,1.2724,0.0058,-0.6483,1.428
10.572,1.0821,0.1033,-0.6416,1.262
10.577,0.8165,0.0571,-0.4705,0.944
10.582,1.0939,0.1424,-0.3427,1.155
10.592,-3.32,1.1309,-3.7485,5.133
10.592,4.7572,-1.4307,2.2335,5.447
10.596,-1.9594,0.4649,1.3853,2.444
10.601,-3.2991,0.9226,-1.4684,3.727
10.606,2.6876,-0.3789,0.5714,2.774
10.612,-0.7145,0.5073,0.823,1.202
10.617,-2.7634,0.3224,-1.1796,3.022
10.627,2.1773,-0.7251,2.3033,3.251
10.627,-2.5935,0.6518,0.3549,2.698
10.632,-0.3235,-0.0632,-0.1177,0.35
10.635,0.3978,-0.1871,0.1603,0.468
10.639,-0.6877,0.0524,-0.0337,0.691
10.644,-0.5083,-0.3981,-0.0394,0.647
10.654,0.0405,-0.5486,0.0716,0.555
10.657,-0.1101,-0.386,0.0289,0.402
10.662,-0.3514,-0.2599,-0.0407,0.439
10.666,-0.4448,-0.2084,-0.0937,0.5
10.669,-0.468,-0.2192,-0.1298,0.533
10.674,-0.5008,-0.2084,-0.125,0.557
10.678,-0.5337,-0.2073,-0.0722,0.577
10.687,-0.5406,-0.2539,-0.0191,0.598
10.69,-0.4671,-0.2668,-0.0496,0.54
10.696,-0.4374,-0.2988,-0.1203,0.543
10.698,-0.3964,-0.3138,-0.2387,0.559
10.703,-0.3603,-0.3455,-0.369,0.621
10.709,-0.3169,-0.3318,-0.3971,0.607
10.713,-0.9536,-0.1699,-0.9789,1.377
10.718,0.3453,-0.4247,0.9591,1.104
10.724,-0.5047,-0.2301,0.785,0.961
10.728,-0.5334,-0.0211,0.2421,0.586
10.733,0.1752,0.0133,0.1834,0.254
10.737,0.1635,0.0643,0.1538,0.234
10.743,-0.0823,0.2491,0.4685,0.537
10.757,0.0072,0.3021,0.6759,0.74
10.757,-0.0389,1.8102,0.7408,1.956
10.757,0.6173,0.9021,0.6404,1.267
10.761,-0.078,-0.0148,0.0035,0.08
10.765,-0.3605,-0.9499,-0.1533,1.027
10.77,-0.2812,-1.2575,-0.162,1.299
10.775,-0.1106,-0.948,-0.0162,0.955
10.781,-0.1667,-0.3544,0.1178,0.409
10.788,-0.3609,0.1906,0.2487,0.478
10.793,-0.3326,0.417,0.3327,0.629
10.799,-1.9582,0.7888,-0.9823,2.328
10.8,1.1356,-0.4076,1.272,1.753
10.807,0.0174,-0.1761,0.3146,0.361
10.81,-1.6695,0.4592,-0.8579,1.932
10.814,0.1829,0.0833,-0.0563,0.209
10.824,0.5441,0.1931,-0.0636,0.581
10.825,0.2501,0.501,-0.0948,0.568
10.829,0.0663,0.5959,-0.0635,0.603
10.833,-0.0317,0.5592,-0.1365,0.576
10.838,-0.118,0.3791,-0.1582,0.427
10.844,-0.1831,0.1276,-0.2078,0.305
10.848,-0.5567,-0.0423,-0.4483,0.716
10.853,-1.8832,-0.1856,-0.9911,2.136
10.858,1.11,-1.0171,1.762,2.318
10.862,-0.9968,-0.3925,0.9512,1.433
10.867,-1.519,0.098,0.7365,1.691
10.873,-1.8047,0.3997,-0.1473,1.854
10.878,1.4791,-0.0089,1.7361,2.281
10.882,-0.8156,0.5434,0.2905,1.022
10.893,-0.7693,0.4332,-0.0414,0.884
10.893,-0.1637,0.304,-0.3176,0.469
10.899,0.1895,0.2176,-0.4209,0.51
10.902,-0.2115,0.1812,-0.6936,0.747
10.907,-0.501,0.0538,-0.7393,0.895
10.912,-0.3424,-0.0782,-0.5633,0.664
10.918,-0.4408,-0.153,-0.4881,0.675
10.923,-0.5238,-0.2039,-0.3726,0.674
10.926,-1.134,-0.102,-0.549,1.264
10.931,-1.0139,-0.4519,-0.0163,1.11
10.936,0.5646,-0.7251,1.3005,1.592
10.941,-2.2111,0.0271,-0.4049,2.248
10.945,-0.7022,-0.2465,0.458,0.874
10.954,-0.4503,-0.3716,0.5178,0.78
10.955,-0.6986,-0.3819,0.2748,0.842
10.96,-0.6393,-0.3561,0.09,0.737
10.964,-0.3923,-0.2561,-0.1374,0.488
10.971,-0.1798,-0.1537,-0.4102,0.474
10.975,0.0342,-0.0775,-0.5232,0.53
10.98,0.1184,-0.0204,-0.6535,0.664
10.989,0.1903,0.0989,-0.6914,0.724
10.998,0.2548,0.1966,-0.644,0.72
10.999,0.2049,0.244,-0.5639,0.648
11,0.115,0.2507,-0.4128,0.496
11.004,-0.0124,0.2382,-0.1908,0.305
11.062,-0.1626,0.1538,0.1142,0.251
11.063,-0.338,0.0694,0.3709,0.507
11.064,-0.5319,0.0042,0.4958,0.727
11.065,-0.6942,-0.0658,0.5631,0.896
11.066,-0.8347,-0.1548,0.5653,1.02
11.075,-0.9417,-0.2316,0.5622,1.121
11.076,-1.0129,-0.2915,0.5536,1.191
11.076,-1.0582,-0.3178,0.5159,1.219
11.077,-1.0035,-0.3224,0.4635,1.151
11.079,-0.9206,-0.2815,0.3871,1.038
11.079,-0.8096,-0.2478,0.3728,0.925
11.081,-0.5698,-0.2212,0.4206,0.742
11.096,-0.4403,-0.1612,0.4017,0.617
11.098,-0.3566,-0.0702,0.3807,0.526
11.099,-0.2326,0.0016,0.3311,0.405
11.1,-0.8761,0.6134,0.607,1.23
11.101,0.0456,0.2495,1.0937,1.123
11.102,0.7345,-0.0663,0.5087,0.896
11.103,0.7329,-0.1526,0.0659,0.752
11.104,0.4359,-0.0571,-0.0788,0.447
11.107,0.4505,0.1123,0.2246,0.516
11.112,0.5253,0.2098,0.434,0.713
11.134,0.5505,0.2902,0.2324,0.664
11.137,0.5745,0.3083,0.1813,0.677
11.139,-0.182,0.6679,0.4933,0.85
11.145,-0.5486,0.3532,0.3063,0.721
11.146,-0.2558,0.1297,0.5149,0.589
11.147,-0.1024,-0.139,0.3804,0.418
11.159,0.0199,-0.3046,0.1799,0.354
11.16,-0.0295,-0.3005,0.1109,0.322
11.16,-0.0615,-0.2653,0.118,0.297
11.161,-0.1667,-0.1872,0.158,0.296
11.163,-0.3549,-0.1165,0.4007,0.548
11.171,-0.3349,-0.2681,0.1892,0.469
11.173,-0.3529,-0.1424,0.1452,0.407
11.179,-0.5837,-0.0382,0.242,0.633
11.188,-0.705,-0.0393,0.2433,0.747
11.19,-0.7362,-0.0928,0.121,0.752
11.193,-0.7229,-0.1175,-0.0246,0.733
11.197,-0.7271,-0.13,-0.127,0.749
11.202,-0.8135,-0.1567,-0.1267,0.838
11.208,-0.8052,-0.2071,-0.1361,0.842
11.212,-0.683,-0.2263,-0.1096,0.728
11.224,-0.6406,-0.164,0.0481,0.663
11.226,-0.6081,-0.0874,0.1725,0.638
11.23,-0.5615,-0.0659,0.3019,0.641
11.233,-0.4982,-0.078,0.3243,0.6
11.239,-0.4156,-0.0877,0.3541,0.553
11.246,-0.3613,-0.0903,0.3291,0.497
11.247,-0.3017,-0.0883,0.2609,0.409
11.255,-0.153,-0.1532,0.274,0.349
11.259,-0.1401,-0.1225,0.1624,0.247
11.262,-0.2844,0.0299,0.0029,0.286
11.269,-0.3875,0.1439,-0.0947,0.424
11.272,-0.4379,0.155,-0.1709,0.495
11.276,-0.419,0.1111,-0.2853,0.519
11.282,-0.3813,0.0554,-0.3804,0.541
11.292,-0.3512,0.0333,-0.4515,0.573
11.293,-0.2739,0.0448,-0.4916,0.565
11.295,-0.1829,0.0779,-0.4863,0.525
11.301,-0.1139,0.099,-0.4143,0.441
11.305,-0.1335,0.1512,-0.3067,0.367
11.313,-0.2083,0.1867,-0.1946,0.341
11.314,-0.2805,0.1982,-0.0971,0.357
11.32,0.2235,0.0424,-0.0763,0.24
11.327,-0.1584,0.0994,-0.2112,0.282
11.338,-0.5965,0.0749,-0.1196,0.613
11.339,-0.6664,-0.0259,0.1294,0.679
11.339,-0.6914,-0.1504,0.1682,0.727
11.343,-0.767,-0.1672,0.0187,0.785
11.355,-0.8194,-0.1935,-0.1279,0.852
11.355,-0.6525,-0.2244,-0.2148,0.723
11.358,-0.491,-0.2002,-0.2658,0.593
11.362,-0.3898,-0.1425,-0.2859,0.504
11.367,-0.37,-0.0657,-0.2489,0.451
11.371,-0.3886,-0.0368,-0.1906,0.434
11.378,-0.3476,-0.0342,-0.1086,0.366
11.384,-0.3401,-0.0053,-0.0315,0.342
11.39,-0.3447,0.0404,0.0646,0.353
11.394,-0.3709,0.0955,0.2132,0.438
11.396,-0.3327,0.1314,0.3523,0.502
11.408,-0.2945,0.1506,0.3889,0.511
11.409,-0.2946,0.172,0.3974,0.524
11.413,-0.2254,0.1791,0.3728,0.471
11.419,-0.13,0.1717,0.3227,0.388
11.423,-1.1722,0.4224,-0.3314,1.289
11.428,-1.9123,0.1662,-0.2948,1.942
11.431,-0.3587,-0.6151,0.561,0.906
11.435,0.077,-0.5305,0.6763,0.863
11.44,1.6091,-0.3435,0.863,1.858
11.447,0.0793,0.5408,-0.4633,0.717
11.452,-1.489,0.7381,-1.3158,2.12
11.455,-0.4658,-0.0753,-0.3563,0.591
11.459,-0.2933,-0.4692,-0.0444,0.555
11.464,-0.1208,-0.3561,-0.0094,0.376
11.471,0.7855,-0.2361,0.1467,0.833
11.476,1.1417,0.0436,-0.0544,1.144
11.483,-1.1166,0.7124,-1.1536,1.756
11.484,-0.5938,0.1236,-0.5522,0.82
11.49,0.8502,-0.4785,0.1931,0.994
11.495,0.6033,-0.2196,-0.0271,0.643
11.501,0.171,0.1008,-0.3608,0.412
11.504,0.4899,0.0145,-0.1852,0.524
11.51,0.7005,-0.0477,-0.1293,0.714
11.513,0.1264,-0.0356,-0.3383,0.363
11.518,0.3757,-0.2576,-0.2889,0.539
11.522,-0.1096,-0.2401,-0.5357,0.597
11.528,0.9647,-0.6957,-0.0889,1.193
11.534,0.5215,-0.5101,-0.5592,0.919
11.539,-0.1896,-0.1598,-1.0738,1.102
11.542,-0.4363,-0.0392,-1.061,1.148
11.554,1.0349,-0.7597,-0.4423,1.358
11.555,-0.1046,-0.1388,-0.888,0.905
11.557,-0.4795,0.1563,-0.7033,0.865
11.567,-0.4855,0.2073,-0.4243,0.677
11.567,-0.6126,0.2749,-0.2206,0.707
11.572,-0.9323,0.3925,-0.0726,1.014
11.576,-1.1553,0.4406,0.0963,1.24
11.58,-1.0195,0.393,0.2577,1.123
11.591,-0.9862,0.4171,0.307,1.114
11.592,-0.9599,0.4172,0.3233,1.095
11.595,-0.8691,0.3335,0.2496,0.964
11.601,-0.7281,0.2069,0.1361,0.769
11.606,-0.3482,0.0828,0.1214,0.378
11.61,-0.2578,0.0997,-0.0647,0.284
11.613,0.036,0.0759,-0.0995,0.13
11.619,0.1221,0.0926,-0.2988,0.336
11.626,0.0893,0.0805,-0.4691,0.484
11.628,0.0833,0.0229,-0.5249,0.532
11.634,0.0966,-0.0513,-0.4807,0.493
11.638,-0.0071,-0.0202,-0.4442,0.445
11.645,0.0043,0.018,-0.3459,0.346
12.095,-0.1128,0.1087,-0.2983,0.337
12.103,-0.1529,0.1083,-0.201,0.275
12.104,-0.3623,0.292,-0.0872,0.473
12.109,-1.011,1.8973,0.5455,2.218
12.113,-0.2083,0.2073,0.551,0.624
12.118,-0.3238,-0.697,0.1139,0.777
12.123,-0.1902,-1.4592,-0.1532,1.479
12.128,-0.7341,-1.0208,-0.7112,1.445
12.133,-0.4821,-0.951,-0.0916,1.07
12.137,-0.5523,-0.7901,-0.0736,0.967
12.142,-0.7224,-0.3066,-0.2032,0.811
12.146,-0.7285,0.0904,-0.1404,0.747
12.151,-0.6355,0.1262,-0.05,0.65
12.157,-0.6008,0.0473,-0.054,0.605
12.161,-1.0698,0.4821,-0.5307,1.288
12.166,-0.746,0.4548,0.2673,0.914
12.171,-0.2688,-0.404,0.5288,0.718
12.179,-0.3823,-0.5373,0.1058,0.668
12.182,-0.9377,0.2807,-0.6719,1.187
12.186,-0.6028,0.4305,0.1597,0.758
12.191,-0.1386,-0.2393,0.3787,0.469
12.196,-0.4342,-0.2581,0.0113,0.505
12.202,-0.532,-0.1716,-0.1468,0.578
12.206,-0.4369,-0.2572,-0.0846,0.514
12.209,-0.2733,-0.3067,-0.0774,0.418
12.215,-0.1247,-0.117,0.1228,0.211
12.219,-0.2845,0.0343,0.1995,0.349
12.226,-0.2739,0.0396,0.1311,0.306
12.232,0.0167,0.0568,0.1317,0.144
12.235,0.193,0.2149,0.0365,0.291
12.24,0.079,0.3559,-0.0135,0.365
12.244,-0.0907,0.3698,-0.0115,0.381
12.25,-0.1323,0.2808,0.0161,0.311
12.255,-0.2227,0.1773,0.0549,0.29
12.266,-0.35,0.1145,0.093,0.38
12.269,-0.4308,0.0206,0.1184,0.447
12.271,-0.432,-0.0685,0.1577,0.465
12.29,-0.4233,-0.0954,0.1346,0.454
12.299,-0.4097,-0.1461,0.1307,0.454
12.3,-0.4248,-0.1227,0.1342,0.462
12.301,-0.4307,-0.1424,0.1355,0.473
12.302,-0.3938,-0.1834,0.1227,0.451
12.303,-0.3527,-0.2292,0.1031,0.433
12.308,-0.3551,-0.2461,0.0644,0.437
12.309,-0.3677,-0.2462,0.0713,0.448
12.313,-0.4024,-0.251,0.0685,0.479
12.323,-0.5599,-0.203,0.0395,0.597
12.324,-0.1209,-0.3509,0.1826,0.414
12.327,-0.0531,-0.2691,0.1061,0.294
12.333,0.0095,-0.2352,0.1087,0.259
12.344,0.0026,-0.2802,0.0492,0.285
12.345,-0.0141,-0.2487,0.0112,0.249
12.348,-0.0523,-0.1621,-0.0173,0.171
12.352,-0.0332,-0.1068,-0.039,0.118
12.355,-0.1002,-0.0658,-0.025,0.122
12.371,-0.1386,0.0278,-0.0087,0.142
12.389,-0.1769,0.1714,0.0385,0.249
12.39,-0.1696,0.334,0.0997,0.388
12.391,-0.1762,0.4485,0.1751,0.513
12.391,-0.2227,0.4863,0.2527,0.592
12.392,-0.3308,0.4881,0.3325,0.677
12.393,-0.3927,0.4539,0.3813,0.711
12.4,-0.4612,0.3767,0.3823,0.708
12.401,-0.5072,0.3497,0.2662,0.671
12.404,-0.5683,0.332,0.1857,0.684
12.409,-0.5466,0.2592,0.1237,0.617
12.415,-0.6561,0.1005,0.0778,0.668
12.418,-0.446,0.0473,0.0867,0.457
12.425,-0.1916,-0.0224,0.0118,0.193
12.434,-0.0311,-0.1064,-0.0889,0.142
12.436,0.0024,-0.1783,-0.1082,0.209
12.438,-0.0313,-0.2357,-0.1366,0.274
12.442,-0.0103,-0.3002,-0.1529,0.337
12.447,-0.0136,-0.3335,-0.1665,0.373
12.453,-0.058,-0.3667,-0.1347,0.395
12.457,-0.1293,-0.3519,-0.115,0.392
12.468,0.5087,-0.533,-0.0239,0.737
12.469,0.3269,-0.3149,-0.0501,0.457
12.472,0.1433,-0.1879,0.0475,0.241
12.476,0.0651,-0.1637,0.152,0.233
12.483,-0.0154,-0.1277,0.1897,0.229
12.486,-0.0575,-0.0918,0.1892,0.218
12.496,-0.0636,-0.0272,0.1531,0.168
12.501,-0.1505,0.1161,0.0574,0.199
12.501,-0.3181,0.2329,-0.0812,0.402
12.507,-0.2436,0.261,-0.0741,0.365
12.511,-0.1497,0.2412,-0.0524,0.289
12.517,-0.1324,0.2214,-0.0973,0.276
12.524,-0.3397,0.3354,-0.1724,0.508
12.525,-1.2428,0.662,-0.0413,1.409
12.541,-0.9876,0.379,-0.0506,1.059
12.546,-0.6176,0.0989,-0.0973,0.633
12.546,-0.5289,-0.0492,-0.2053,0.569
12.548,-0.5604,-0.0227,-0.2842,0.629
12.553,-0.5899,0.0445,-0.2793,0.654
12.557,-0.5097,0.071,-0.2243,0.561
12.559,-0.27,0.0139,-0.1119,0.293
12.565,-0.1479,-0.0359,-0.0996,0.182
12.57,-0.1001,-0.0905,-0.1466,0.199
12.574,-0.0835,-0.1953,-0.1668,0.27
12.58,-0.0574,-0.2498,-0.1934,0.321
12.584,-0.0866,-0.3042,-0.2434,0.399
12.59,-0.1828,-0.3467,-0.3072,0.498
12.595,-0.3102,-0.3316,-0.4308,0.626
12.599,-0.3759,-0.3094,-0.4706,0.677
12.602,-0.4968,-0.1843,-0.5226,0.744
12.608,-0.5654,-0.1071,-0.5199,0.776
12.612,-0.4146,-0.0347,-0.374,0.559
12.617,-0.0398,-0.0459,-0.3454,0.351
12.621,0.0532,0.0145,-0.2596,0.265
12.626,-0.1328,0.1273,-0.1071,0.213
12.632,-0.0862,0.0535,0.0119,0.102
12.636,-0.0421,-0.0418,0.0857,0.104
12.641,-0.1722,0.0255,0.2317,0.29
12.646,-0.3353,0.181,0.3088,0.49
12.65,-0.374,0.2359,0.3767,0.581
12.657,-0.3939,0.2477,0.4116,0.621
12.663,-0.2923,0.2117,0.4397,0.569
12.673,-0.2534,0.1806,0.4179,0.521
12.689,-0.4179,0.25,0.5466,0.732
12.691,-0.5538,0.3313,0.5985,0.88
12.692,-0.4655,0.3146,0.5879,0.813
12.693,-0.313,0.2693,0.5342,0.675
12.695,-1.3186,1.5094,-0.2188,2.016
12.696,-0.3716,1.0769,0.1742,1.152
12.699,-0.0919,-0.0265,0.663,0.67
12.705,-0.5909,-0.3709,0.6793,0.974
12.708,-0.8761,-0.2415,0.3152,0.962
12.713,-0.6583,0.1765,0.1086,0.69
12.718,-0.2701,-0.2546,0.4185,0.559
12.724,-0.391,-0.6564,0.4837,0.904
12.731,-0.4053,-0.9617,0.3579,1.103
12.734,-0.5616,-0.4016,-0.1317,0.703
12.738,-0.4512,-0.3513,0.0122,0.572
12.744,-0.1828,-0.8982,-0.0471,0.918
12.748,-0.5211,-0.6893,-0.2576,0.902
12.059,-0.4482,-0.9322,-0.3376,1.088
12.067,-0.8251,-0.5465,-0.3857,1.062
12.067,-0.45,-1.0571,-0.1005,1.153
12.072,-0.5571,-1.0577,-0.0455,1.196
12.077,-1.0844,-0.3893,-0.1222,1.159
12.081,-0.6502,-0.4646,0.189,0.821
12.085,-0.9329,0.3733,-0.209,1.026
12.089,-0.6436,0.3907,-0.0731,0.756
12.104,-0.114,0.4419,-0.2546,0.523
12.104,-0.0234,0.5459,-0.2138,0.587
12.109,0.2406,0.5136,-0.1991,0.601
12.111,0.2701,0.804,-0.3798,0.929
12.116,0.3692,0.6137,-0.2551,0.76
12.119,0.689,0.2327,-0.2429,0.767
12.124,0.5211,0.409,-0.283,0.72
12.129,0.4045,0.843,-0.66,1.145
12.133,0.2255,0.6191,-0.3476,0.745
12.142,0.5748,0.1638,0.0661,0.601
12.143,0.5518,-0.0474,0.0711,0.558
12.15,0.5419,-0.1941,-0.0467,0.578
12.154,0.3895,-0.1807,-0.1725,0.463
12.157,0.202,-0.0528,-0.2375,0.316
12.166,0.0154,0.1632,-0.1662,0.233
12.169,-0.1463,0.3359,-0.0335,0.368
12.172,-0.2616,0.3626,0.1006,0.458
12.177,-0.2873,0.2863,0.1836,0.445
12.181,-0.3621,0.2626,0.2371,0.506
12.186,-0.474,0.2435,0.2277,0.579
12.192,-0.4727,0.0977,0.3016,0.569
12.196,-0.4569,-0.0169,0.3039,0.549
12.205,-0.4501,-0.067,0.228,0.509
12.206,-0.6005,-0.0407,0.0745,0.606
12.212,-0.7117,-0.0457,-0.0133,0.713
12.215,-0.7581,-0.0914,-0.0647,0.766
12.22,-0.9195,-0.063,-0.1563,0.935
12.225,-1.6691,0.7542,-0.0685,1.833
12.231,-1.0506,0.2845,0.2222,1.111
12.24,-0.6721,-0.2323,0.2236,0.745
12.241,-0.4425,-0.6265,0.2227,0.799
12.248,-0.2446,-0.8171,0.2673,0.894
12.249,-0.2554,-0.7468,0.1828,0.81
12.254,-0.3719,-0.5833,0.0958,0.698
12.259,-0.4457,-0.3936,0.0229,0.595
12.265,-0.4747,-0.2565,-0.0266,0.54
12.271,-0.4609,-0.1578,0,0.487
12.277,-0.4835,-0.0328,0.0239,0.485
12.279,-0.4232,0.0062,0.0668,0.428
12.285,-0.2941,-0.0122,0.0859,0.307
12.288,-0.1917,-0.0234,0.091,0.213
12.294,-0.1564,-0.0011,0.1132,0.193
12.307,-0.2644,0.0451,0.1595,0.312
12.307,-0.4701,0.0218,0.1771,0.503
12.307,-0.699,-0.0421,0.1801,0.723
12.312,-0.8001,-0.216,0.1636,0.845
12.319,-0.7926,-0.3157,0.1465,0.866
12.322,-0.8057,-0.3222,0.0859,0.872
12.333,-0.8971,-0.3646,0.1439,0.979
12.338,-0.9759,-0.4523,0.1339,1.084
12.339,-1.0092,-0.4754,0.1236,1.122
12.341,-1.0091,-0.4077,0.1492,1.099
12.349,-0.9521,-0.3017,0.1196,1.006
12.351,-0.8622,-0.1837,0.054,0.883
12.357,-0.7658,-0.0491,0.0406,0.768
12.362,-0.6889,0.0401,0.0602,0.693
12.372,-0.5953,0.0861,0.0791,0.607
12.372,-0.5208,0.1154,0.1333,0.55
12.376,-0.4125,0.1136,0.2061,0.475
12.382,-0.2895,0.169,0.2284,0.406
12.388,-0.2306,0.3318,0.1378,0.427
12.391,-0.1469,0.5087,0.0536,0.532
12.395,-0.0717,0.6661,0.0498,0.672
12.4,0.0143,0.7777,0.1095,0.785
12.404,0.0422,0.8411,0.1303,0.852
12.411,0.0911,0.787,0.1171,0.801
12.414,0.1154,0.6634,0.0798,0.678
12.419,0.0628,0.5229,0.0784,0.532
12.424,0.0622,0.3679,0.0797,0.382
12.433,-0.0085,0.2248,0.0718,0.236
12.434,-0.147,0.127,0.0549,0.202
12.44,-0.3326,0.0626,0.0527,0.343
12.443,-0.4824,0.0223,0.0582,0.486
12.45,-0.7378,0.0443,0.2289,0.774
12.455,-0.3929,-0.6411,0.8956,1.169
12.459,-0.1245,-1.4966,1.2735,1.969
12.471,-0.5099,-1.488,1.6932,2.311
12.473,2.685,-0.9745,-0.5709,2.913
12.474,5.0482,0.8417,-0.3439,5.129
12.477,5.0976,1.5657,0.3209,5.342
12.482,2.584,1.867,0.3028,3.202
12.488,-1.5258,2.1896,-0.4608,2.708
12.492,-4.4327,1.9927,-1.4236,5.064
12.504,-5.549,1.0032,-2.1326,6.029
12.507,-5.0031,-0.1992,-2.432,5.566
12.509,-3.814,-1,-2.2742,4.552
12.511,-2.7834,-1.2373,-1.6493,3.464
12.517,-1.7877,-1.1392,-0.6616,2.221
12.52,-0.8563,-0.7445,0.4926,1.237
12.526,-0.1717,-0.355,1.5124,1.563
12.533,0.1982,-0.1527,2.1078,2.123
12.535,0.3304,-0.0801,2.2023,2.228
12.54,1.076,-0.044,2.1011,2.361
12.552,1.9741,0.0512,1.7009,2.606
12.556,1.5272,0.4322,1.1704,1.972
12.557,0.9381,0.6665,0.4323,1.229
12.569,0.6572,0.1858,0.0621,0.686
12.57,0.1674,-0.0672,-0.0469,0.186
12.574,-0.4543,0.0026,-0.1076,0.467
12.576,-0.9139,0.3089,-0.21,0.987
12.58,-0.8992,0.6673,-0.5391,1.243
12.586,-0.8032,0.9797,-0.8578,1.53
12.589,-0.279,1.1268,-1.2856,1.732
12.593,0.0046,0.8529,-1.6297,1.839
12.604,-0.4593,-0.0563,-0.8422,0.961
12.604,0.0012,-0.0776,-0.3856,0.393
12.609,0.5883,0.1472,-0.2248,0.647
12.613,0.9159,0.259,-0.2164,0.976
12.618,0.9927,0.2938,-0.4707,1.137
12.623,0.9469,0.6172,-0.9458,1.474
12.628,0.6772,0.3873,0.4133,0.883
12.633,-1.7211,-1.2519,-1.2738,2.48
12.637,-0.9779,-1.0098,-0.7404,1.589
12.642,-0.4669,-0.557,-0.6779,0.994
12.652,0.06,-0.195,-0.8794,0.903
12.652,0.7344,-0.1177,-0.5996,0.955
12.658,0.6678,-0.4516,-0.6655,1.045
12.662,0.4617,-0.5437,-0.4461,0.841
12.67,0.7564,0.0095,-0.4793,0.896
12.673,0.1612,-0.5832,1.571,1.684
12.676,-1.5001,-1.2393,-0.5205,2.014
12.682,-0.8417,-0.7757,-0.2669,1.175
12.686,-0.3694,-0.6086,-0.3366,0.787
12.69,0.0527,-0.274,-0.1684,0.326
12.709,0.1087,-0.052,0.1249,0.174
12.71,-0.1763,-0.2391,0.2432,0.384
12.711,-0.5707,-0.4713,0.3018,0.799
12.711,-0.8503,-0.5024,0.4606,1.09
12.714,-1.0879,-0.4784,0.4884,1.285
12.719,-1.2484,-0.2631,0.3976,1.336
12.724,-1.0938,-0.1362,0.1838,1.117
12.729,-0.8821,-0.1191,-0.0577,0.892
12.735,-0.6438,-0.1879,-0.211,0.703
12.739,-0.3996,-0.2563,-0.1718,0.505
12.744,-0.2064,-0.2503,-0.0412,0.327
12.748,-0.0709,-0.2513,0.1092,0.283
12.753,-0.0668,-0.1997,0.2224,0.306
12.758,-0.144,-0.0524,0.3298,0.364
12.763,-0.1927,-0.0342,0.3552,0.406
12.768,-0.2293,0.0341,0.3878,0.452
12.773,-0.3705,0.0879,0.4111,0.56
12.777,-0.5013,0.0794,0.4063,0.65
12.782,-0.4859,0.0994,0.3525,0.608
12.787,-0.3794,0.179,0.2571,0.492
12.793,-0.1675,0.2583,0.1606,0.347
12.8,0.0186,0.3111,0.163,0.352
12.802,0.1366,0.3015,0.2277,0.402
12.807,0.4002,0.079,0.3543,0.54
12.811,-0.0103,0.0476,0.3973,0.4
12.816,-0.2853,-0.0127,0.3763,0.472
12.821,-0.3899,0.0418,0.2916,0.489
12.828,-0.4155,0.0603,0.1958,0.463
12.834,-0.4056,-0.0145,0.0839,0.414
12.837,-0.346,-0.1178,0.0201,0.366
12.841,-0.6384,-0.1969,1.5282,1.668
12.846,-1.0236,-0.9581,2.7167,3.057
12.85,-0.0259,-0.6026,0.1236,0.616
12.855,0.846,-0.0638,-0.1895,0.869
12.86,0.932,-0.4158,-0.5474,1.158
12.866,0.3931,-0.1974,-0.7463,0.866
12.87,-0.2168,0.259,-0.7303,0.805
12.874,-0.622,0.4921,-0.9552,1.242
12.88,-0.6542,0.6006,-1.1379,1.443
12.884,-0.5793,0.4819,-1.1342,1.362
12.889,-0.8299,0.3492,-0.9307,1.295
12.896,-0.4982,0.2242,-0.6379,0.84
12.9,-0.2775,0.0301,-0.2722,0.39
12.904,-0.2026,-0.0967,0.233,0.324
12.908,-0.0537,-0.1109,0.608,0.62
12.913,-0.044,-0.1012,0.7745,0.782
12.918,-0.011,-0.1727,0.8072,0.826
12.922,0.1336,-0.0935,0.6344,0.655
12.929,0.3038,-0.0932,0.3591,0.479
12.932,0.5073,-0.2673,0.1237,0.587
12.939,1.144,-0.4983,0.0017,1.248
12.942,0.5675,-0.318,0.0021,0.651
12.947,0.4934,-0.379,0.0267,0.623
12.952,0.5669,-0.2986,-0.177,0.665
12.957,0.6593,-0.2183,-0.1613,0.713
12.962,0.8403,-0.0902,-0.1822,0.865
12.972,0.9475,-0.0076,-0.0745,0.95
12.972,0.9283,0.051,0.0013,0.93
12.977,1.0367,0.2195,0.0427,1.061
12.981,0.0091,0.3184,-0.2844,0.427
12.986,-1.3833,0.3793,-0.0781,1.436
12.99,-0.9341,-0.3192,-0.1891,1.005
13,-0.1664,-0.2442,-0.1653,0.339
13.001,0.4375,-0.4033,-0.0189,0.595
13.005,0.8276,-0.6289,0.2427,1.067
13.011,0.9285,-0.6489,0.5911,1.278
13.019,0.8182,-0.5401,0.9533,1.367
13.02,0.3365,-0.3603,1.1541,1.255
13.024,-0.2278,-0.0476,1.2042,1.226
13.03,-0.8872,0.3431,1.0659,1.429
13.035,-1.8337,0.8713,0.6989,2.147
13.04,-2.2187,0.7582,0.3321,2.368
13.044,-2.0605,0.8033,-0.1958,2.22
13.048,-1.4553,0.5955,-0.4124,1.626
13.054,-1.0787,0.6106,-0.5864,1.371
13.065,-0.8404,0.3895,-0.5724,1.089
13.065,-0.6359,0.3504,-0.6406,0.968
13.069,-0.4813,0.0557,-0.513,0.706
13.076,-5.3656,0.6331,-2.8134,6.091
13.082,-0.8219,-0.7325,1.0173,1.499
13.082,0.6466,0.6097,-0.8736,1.246
13.087,2.2553,1.4256,-0.1282,2.671
13.092,-0.9527,-0.2308,-0.7804,1.253
13.103,-0.3693,-0.7848,0.9716,1.302
13.103,-0.4263,0.8834,0.9479,1.364
13.11,0.483,0.8184,-0.0041,0.95
13.112,0.6212,-0.6821,-0.615,1.109
13.117,-10.4366,2.7111,29.9436,31.826
13.122,-0.5166,1.4216,-0.0675,1.514
13.128,-1.6609,0.2318,-1.1577,2.038
13.138,-0.7913,-0.5109,-4.3736,4.474
13.139,-0.119,-0.8181,-5.2435,5.308
13.144,-0.091,-0.8813,-4.9242,5.003
13.147,-0.0002,-0.9089,-3.9778,4.08
13.151,0.0938,-0.8825,-3.0353,3.162
13.155,-0.0287,-0.8599,-2.0961,2.266
13.163,0.1157,-0.9728,-1.2649,1.6
13.174,0.2976,-0.911,-0.5866,1.124
13.175,0.4294,-0.7299,-0.2022,0.871
13.175,0.5546,-0.511,0.0161,0.754
13.182,0.6734,-0.5676,0.1711,0.897
13.187,0.1553,-0.4163,0.2479,0.509
13.191,0.2361,-0.0335,-0.4879,0.543
13.195,0.2788,0.1887,-0.3412,0.479
13.204,0.1282,0.1095,0.1465,0.223
13.205,-0.0841,0.0282,0.5661,0.573
13.209,-0.1742,0.1214,0.7846,0.813
13.215,-0.2162,0.2334,0.8245,0.884
13.218,-0.2891,0.3523,0.8464,0.961
13.223,-0.3236,0.447,0.8144,0.984
13.231,-0.3869,0.508,0.7596,0.992
13.233,-0.3597,0.49,0.677,0.91
13.238,-0.4431,0.4505,0.5713,0.852
13.243,-0.4789,0.3512,0.4541,0.748
13.248,-0.2691,0.0465,0.7509,0.799
13.252,-0.8441,0.4663,0.1634,0.978
13.259,-0.1306,0.5463,-0.325,0.649
13.263,0.0009,0.5042,-0.4661,0.687
13.266,-0.0282,0.2352,-0.2418,0.339
13.272,0.1265,-0.1456,0.2807,0.341
13.277,-0.1515,0.0188,-0.263,0.304
13.283,0.2615,-0.0035,-0.4853,0.551
13.287,0.1982,0.0053,-0.5396,0.575
13.291,0.1303,-0.0026,-0.324,0.349
13.297,0.2058,0.0995,-0.2739,0.357
13.306,0.2551,0.0628,-0.2549,0.366
13.307,0.1708,-0.0168,-0.3267,0.369
13.311,0.0727,-0.0581,-0.3461,0.358
13.315,0.0539,-0.1328,-0.2106,0.255
13.32,0.0353,-0.0688,-0.0853,0.115
13.325,-0.0521,-0.0382,-0.0392,0.076
13.332,-0.0771,-0.0866,-0.0245,0.119
13.338,-0.162,-0.0249,-0.0481,0.171
13.341,-0.075,-0.1497,0.0069,0.168
13.346,-0.1773,-0.0591,0.021,0.188
13.349,-0.2276,-0.1551,-0.0295,0.277
13.354,-0.2307,-0.2413,-0.1085,0.351
13.358,-0.1941,-0.2771,-0.1946,0.39
13.364,-0.0698,-0.3249,-0.2064,0.391
13.369,0.018,-0.3605,-0.1585,0.394
13.376,0.0505,-0.3747,-0.082,0.387
13.378,0.0471,-0.3242,-0.0151,0.328
13.384,0.0343,-0.2357,0.1019,0.259
13.387,0.0169,-0.1496,0.1402,0.206
13.392,0.0404,-0.1091,0.1476,0.188
13.399,0.0785,-0.0783,0.1646,0.198
13.403,-0.0027,-0.0953,0.1889,0.212
13.407,-0.1338,-0.0716,0.208,0.258
13.415,-0.2312,-0.091,0.1767,0.305
13.419,-0.3189,-0.0697,0.1284,0.351
13.422,-0.3301,-0.0412,0.1062,0.349
13.426,-0.3315,-0.0007,0.0647,0.338
13.433,-0.3449,0.0325,0.0064,0.346
13.436,-0.3654,0.0155,-0.0663,0.372
13.441,-0.4097,-0.0182,-0.1412,0.434
13.447,-0.4208,-0.0518,-0.247,0.491
13.452,-0.358,-0.0783,-0.3144,0.483
13.457,-0.2619,-0.0807,-0.3581,0.451
13.46,-0.1278,-0.0712,-0.3781,0.405
13.466,-0.044,-0.0736,-0.3599,0.37
13.471,0.0232,-0.0498,-0.2893,0.294
13.475,0.0618,-0.0642,-0.1973,0.216
13.481,0.0886,-0.069,-0.1029,0.152
13.485,0.0917,-0.05,-0.0086,0.105
13.49,0.1021,-0.0238,0.0881,0.137
13.495,0.1221,-0.0121,0.1345,0.182
13.5,0.0609,-0.0409,0.1498,0.167
13.505,-0.0338,-0.0817,0.1365,0.163
13.509,-0.1216,-0.0651,0.0921,0.166
13.514,-0.2073,-0.058,0.0908,0.234
13.52,-0.2598,0.004,0.0419,0.263
13.523,-0.2791,0.0302,-0.0117,0.281
13.528,-0.2987,0.0395,-0.1247,0.326
13.533,-0.316,0.0154,-0.2015,0.375
13.538,-0.3288,-0.0015,-0.259,0.419
13.543,-0.3657,0.0486,-0.3093,0.481
13.549,-0.3596,0.1655,-0.3237,0.511
13.552,-0.2582,0.2273,-0.2137,0.405
13.557,-0.2743,0.2723,-0.0993,0.399
13.562,-0.2379,0.3412,-0.047,0.419
13.576,-0.2134,0.3239,-0.0327,0.389
13.576,-0.2104,0.2421,0.0007,0.321
13.577,-0.1739,0.1365,0.0365,0.224
13.581,-0.1996,0.0358,0.0482,0.208
13.586,-0.1799,-0.0265,-0.0335,0.185
13.591,-0.0456,-0.1102,-0.2609,0.287
13.6,0.0646,-0.2535,-0.0155,0.262
13.603,-0.0764,-0.3009,0.05,0.314
13.606,-0.2053,-0.2431,-0.0784,0.328
13.612,-0.1886,-0.1328,-0.1539,0.277
13.616,-0.1434,-0.0632,-0.1862,0.243
13.622,-0.1725,0.0325,-0.1373,0.223
13.625,-0.2995,0.1281,-0.0596,0.331
13.63,-0.3713,0.2332,0.0346,0.44
13.636,-0.3881,0.2975,0.0788,0.495
13.64,-0.412,0.2733,0.1135,0.507
13.646,-0.3902,0.1988,0.0863,0.446
13.652,-0.3659,0.1173,0.0379,0.386
13.656,-0.4275,0.0119,-0.0148,0.428
13.659,-0.4817,-0.0528,-0.0791,0.491
13.665,-0.4763,-0.0888,-0.1453,0.506
13.671,-0.4279,-0.0483,-0.161,0.46
13.674,-0.3798,0.04,-0.1142,0.399
13.679,-0.3151,0.097,-0.0767,0.339
13.687,-0.265,0.1349,-0.0391,0.3
13.689,-0.2889,0.1296,-0.0252,0.318
13.694,-0.2795,0.1363,-0.0374,0.313
13.7,-0.3036,0.0928,-0.073,0.326
13.704,-0.325,0.0707,-0.1227,0.355
13.708,-0.2984,0.0439,-0.1985,0.361
13.714,-0.298,-0.0044,-0.2432,0.385
13.718,-0.3022,-0.0239,-0.2857,0.417
13.723,-0.2896,-0.0481,-0.345,0.453
13.727,-0.3271,-0.0819,-0.3781,0.507
13.735,-0.4172,-0.075,-0.3994,0.582
13.736,-0.5095,-0.025,-0.3875,0.641
13.741,-0.537,0.0822,-0.3232,0.632
13.747,-0.4566,0.2037,-0.2688,0.568
13.752,-0.3568,0.3131,-0.1835,0.509
13.756,-0.2566,0.3601,-0.101,0.454
13.769,-0.2799,0.3187,-0.088,0.433
13.77,-0.3623,0.2103,-0.1132,0.434
13.778,-0.4727,0.1092,-0.1481,0.507
13.778,-0.5349,0.0417,-0.1807,0.566
13.782,-0.5707,-0.0472,-0.1635,0.596
13.785,-0.6327,-0.1574,-0.1346,0.666
13.79,-0.7353,-0.2938,-0.0942,0.797
13.795,-0.8094,-0.4037,-0.1256,0.913
13.801,-0.7931,-0.5015,-0.1974,0.959
13.805,-0.8013,-0.5585,-0.2355,1.005
13.81,-0.8077,-0.5724,-0.2852,1.03
13.814,-0.6908,-0.493,-0.3298,0.911
13.819,-0.5151,-0.3778,-0.3597,0.733
13.824,-0.2901,-0.1768,-0.3606,0.495
13.828,-0.1446,-0.0166,-0.3205,0.352
13.838,-0.1523,0.1051,-0.2635,0.322
13.839,-0.086,0.1716,-0.254,0.318
13.843,-0.0436,0.2285,-0.2587,0.348
13.849,0.1138,0.1945,-0.2489,0.336
13.853,-0.0104,0.268,-0.294,0.398
13.859,0.1482,0.2745,-0.3825,0.494
13.864,0.0873,0.2667,-0.3304,0.433
13.869,0.0697,0.1131,-0.1762,0.221
13.873,0.0047,-0.0234,-0.0374,0.044
13.878,-0.0577,-0.1359,0.0455,0.154
13.882,0.0689,-0.0951,0.0988,0.153
13.887,0.236,0.0746,0.1515,0.29
13.894,0.241,0.1223,0.2662,0.379
13.898,0.1248,0.0766,0.2974,0.332
13.901,-0.0244,0.0094,0.2977,0.299
13.908,-0.1375,-0.0075,0.2578,0.292
13.911,-0.2532,0.0113,0.2014,0.324
13.919,-0.4049,0.047,0.1381,0.43
13.92,-0.4779,0.0706,0.0369,0.484
13.926,-0.532,0.1324,-0.033,0.549
13.931,-0.5098,0.1823,-0.0839,0.548
13.936,-0.4212,0.1867,-0.0799,0.468
13.94,-0.4023,0.1553,-0.119,0.447
13.945,-0.4268,0.0499,-0.1797,0.466
13.951,-0.3968,-0.0242,-0.1614,0.429
13.955,-0.3459,-0.0935,-0.1906,0.406
13.959,-0.3241,-0.1268,-0.2364,0.421
13.97,-0.3001,-0.1338,-0.3251,0.462
13.97,-0.3049,-0.0882,-0.4019,0.512
13.974,-0.3908,-0.1047,-0.4505,0.606
13.979,-0.5008,-0.2,-0.3225,0.628
13.984,-0.406,-0.202,-0.2567,0.521
13.989,-0.2997,-0.1346,-0.2219,0.396
13.994,-0.2487,-0.084,-0.1965,0.328
14.001,-0.2505,-0.0909,-0.195,0.33
14.003,-0.2617,-0.1145,-0.1625,0.329
14.008,-0.2611,-0.1428,-0.1062,0.316
14.013,-0.2079,-0.1376,-0.0163,0.25
14.018,-0.1714,-0.0966,-0.01,0.197
14.023,-0.2322,-0.0485,-0.0826,0.251
14.028,-0.55,-0.0866,0.0024,0.557
14.033,-0.5834,-0.1199,0.0542,0.598
14.038,-0.4502,-0.048,-0.0176,0.453
14.042,-0.4081,0.0453,-0.153,0.438
14.049,-0.3852,0.1289,-0.2546,0.479
14.052,-0.3908,0.1622,-0.3705,0.562
14.06,-0.3512,0.2074,-0.4556,0.611
14.064,-0.3095,0.2264,-0.5197,0.646
14.067,-0.2655,0.2311,-0.4986,0.61
14.071,-0.2312,0.2694,-0.4764,0.594
14.076,-0.4162,0.2599,-0.3144,0.583
14.083,-0.5513,0.1764,0.0095,0.579
14.086,-0.3582,0.1982,0.1472,0.435
14.09,-0.1783,0.287,0.1473,0.369
14.095,-0.2259,0.3229,-0.0307,0.395
14.102,-0.3499,0.2488,-0.2435,0.494
14.106,-0.4212,0.115,-0.4243,0.609
14.11,-0.5043,-0.0138,-0.4995,0.71
14.118,-0.5825,-0.1258,-0.5101,0.784
14.12,-0.6321,-0.209,-0.5278,0.85
14.124,-0.684,-0.3039,-0.5075,0.904
14.131,-0.6399,-0.308,-0.5806,0.917
14.136,-0.9291,-0.4339,-0.4895,1.136
14.139,-0.9337,-0.6075,-0.2,1.132
14.144,-0.6044,-0.6303,-0.1012,0.879
14.149,-0.3041,-0.56,-0.1357,0.652
14.153,-0.2658,-0.497,-0.0769,0.569
14.158,-0.3342,-0.4127,-0.083,0.537
14.164,-0.3038,-0.2735,-0.2282,0.468
14.168,-0.2559,-0.144,-0.2665,0.397
14.173,-0.1957,-0.0195,-0.1572,0.252
14.178,-0.2435,0.1241,-0.0318,0.275
14.183,-0.213,0.2221,0.0934,0.322
14.195,-0.1118,0.2748,0.1563,0.335
14.196,0.0479,0.3035,0.2217,0.379
14.198,0.1449,0.3752,0.1413,0.426
14.202,0.2011,0.4302,0.1327,0.493
14.207,0.1523,0.442,0.191,0.505
14.212,0.1445,0.461,0.2854,0.561
14.217,0.125,0.4655,0.3848,0.617
14.221,0.1633,0.4795,0.4084,0.651
14.227,0.1806,0.4742,0.3251,0.603
14.233,0.1867,0.3852,0.2331,0.487
14.236,0.0957,0.3248,0.192,0.389
14.242,0.0341,0.3002,0.1208,0.325
14.246,0.0355,0.2707,0.0476,0.277
14.251,-0.0605,0.3248,-0.061,0.336
14.256,-0.1202,0.3359,-0.1288,0.379
14.26,-0.0744,0.3325,-0.168,0.38
14.267,-0.0928,0.3578,-0.1547,0.401
14.27,-0.0702,0.3281,-0.1082,0.353
14.274,-0.0954,0.2866,-0.0238,0.303
14.28,-0.1014,0.1733,0.0557,0.208
14.284,-0.0117,0.0436,0.1013,0.111
14.289,-0.0986,-0.0359,0.2109,0.236
14.294,-0.0782,-0.0411,0.1796,0.2
14.301,-0.033,-0.0751,0.0548,0.099
14.304,-0.2809,-0.2644,0.3746,0.538
14.308,0.013,-0.3842,0.4584,0.598
14.313,0.3798,-0.4154,0.2612,0.621
14.318,0.6705,-0.4658,0.0236,0.817
14.323,0.3054,-0.3751,-0.1238,0.499
14.328,-0.0069,-0.299,-0.1756,0.347
14.333,0.1774,-0.2514,-0.2589,0.402
14.338,0.254,-0.2349,-0.2688,0.438
14.342,0.2234,-0.24,-0.2744,0.428
14.347,0.2029,-0.2881,-0.2924,0.458
14.352,-0.0106,-0.2285,-0.2826,0.364
14.357,-0.1261,-0.1786,-0.3161,0.384
14.363,-0.1366,-0.1621,-0.331,0.393
14.368,-0.1112,-0.1312,-0.2653,0.316
14.371,-0.2172,-0.1195,-0.1737,0.303
14.376,-0.1965,-0.1149,-0.0684,0.238
14.381,-0.1423,-0.1533,-0.0139,0.21
14.388,-0.1884,-0.1175,0.0425,0.226
14.391,-0.1888,-0.1272,0.0865,0.244
14.396,-0.2512,-0.1345,0.087,0.298
14.401,-0.3563,-0.1728,0.0011,0.396
14.406,-0.4041,-0.1919,-0.0158,0.448
14.41,-0.4856,-0.1488,-0.0188,0.508
14.415,-0.4955,-0.1176,-0.0412,0.511
14.42,-0.5294,-0.1247,-0.1095,0.555
14.425,-0.6039,-0.0481,-0.1444,0.623
14.432,-0.5927,0.0858,-0.1745,0.624
14.434,-0.5507,0.1168,-0.2571,0.619
14.439,-0.6046,0.1478,-0.3037,0.693
14.445,-0.5848,0.1764,-0.2548,0.662
14.449,-0.4796,0.1477,-0.1919,0.537
14.454,-0.3655,0.0283,-0.1366,0.391
14.459,-0.2732,-0.0933,-0.0795,0.299
14.465,-0.1836,-0.1,0.0415,0.213
14.47,-0.0558,-0.0756,0.1931,0.215
14.474,-0.0306,0.0014,0.3108,0.312
14.478,-0.0193,0.1332,0.3951,0.417
14.483,0.0162,0.2456,0.3529,0.43
14.488,0.0451,0.2551,0.2705,0.375
14.493,0.0743,0.2191,0.26,0.348
14.499,0.0728,0.2118,0.2857,0.363
14.503,0.0882,0.2451,0.3071,0.403
14.507,0.094,0.3094,0.3291,0.461
14.513,0.0544,0.3233,0.3138,0.454
14.517,0.0362,0.3299,0.2589,0.421
14.521,0.0106,0.2864,0.2047,0.352
14.526,-0.0608,0.2261,0.1534,0.28
14.531,-0.0943,0.1922,0.1334,0.252
14.537,-0.1019,0.125,0.123,0.203
14.541,-0.0788,-0.0353,0.1482,0.172
14.547,-0.1515,-0.095,0.1037,0.207
14.551,-0.1672,-0.1092,-0.0153,0.2
14.556,-0.1304,-0.2356,-0.0271,0.271
14.56,-0.1176,-0.3044,-0.0395,0.329
14.567,-0.1646,-0.4089,-0.0143,0.441
14.57,-0.2307,-0.4965,-0.0039,0.548
14.577,-0.316,-0.5744,-0.0369,0.657
14.581,-0.4634,-0.6402,-0.1513,0.805
14.585,-0.5824,-0.7298,-0.2993,0.981
14.59,-0.7185,-0.7642,-0.3163,1.096
14.594,-0.8072,-0.8033,-0.3338,1.187
14.6,-0.8869,-0.7537,-0.2421,1.189
14.606,-0.9455,-0.6874,-0.1845,1.183
14.609,-0.9878,-0.6139,-0.13,1.17
14.613,-1.0139,-0.5834,-0.1116,1.175
14.619,-1.0644,-0.584,-0.1364,1.222
14.623,-1.0918,-0.4125,0.0756,1.17
14.628,-0.881,-0.2841,0.1798,0.943
14.634,-0.7066,-0.2418,0.2745,0.796
14.639,-0.6232,-0.269,0.2909,0.739
14.643,-0.6427,-0.2604,0.2121,0.725
14.648,-0.6624,-0.2398,0.2318,0.742
14.652,-0.5319,-0.0256,0.3855,0.657
14.657,-0.3893,0.1141,0.3862,0.56
14.663,-0.1892,0.0912,0.3059,0.371
14.669,0.752,-0.3286,-0.1491,0.834
14.675,1.8647,-1.0012,0.0785,2.118
14.677,1.0687,-0.9131,1.3369,1.94
14.691,0.1352,-0.3664,0.8898,0.972
14.691,0.0771,0.1512,-0.6436,0.666
14.693,0.3411,0.5108,-1.3294,1.464
14.7,0.6204,0.7484,-1.2301,1.568
14.702,0.6076,0.8473,-0.5442,1.176
14.706,0.2405,0.9748,0.1218,1.011
14.711,0.0232,1.0806,0.4636,1.176
14.718,-0.0854,1.1862,0.715,1.388
14.72,-0.42,1.265,1.0759,1.713
14.727,-0.7508,1.3265,1.2796,1.99
14.731,-0.818,1.28,1.169,1.917
14.735,-0.9474,0.9917,1.163,1.798
14.741,-0.5426,0.6629,0.8667,1.219
14.745,-0.1417,0.6927,0.6671,0.972
14.75,0.0032,0.5549,0.5037,0.749
14.754,-2.1248,1.5045,3.573,4.421
14.759,3.5438,1.7763,3.9687,5.609
14.764,4.7358,0.5863,-2.156,5.236
14.769,-2.1188,0.1368,-4.6394,5.102
14.774,-1.4604,-0.5905,-1.4888,2.167
14.782,-1.0067,-1.1043,-1.4155,2.058
14.783,-0.7926,-1.0394,-0.316,1.345
14.794,0.0425,-0.6569,-0.3946,0.767
14.794,0.3391,-0.4803,1.1601,1.301
14.803,0.3188,-0.1437,1.5805,1.619
14.808,-0.8379,-0.7635,0.6525,1.308
14.808,-1.0403,-0.6871,-0.1786,1.259
14.814,-0.706,-0.1923,-0.6603,0.986
14.818,-0.3108,0.1682,-0.844,0.915
14.826,-0.0092,0.2417,-0.793,0.829
14.831,-0.0844,0.1192,-0.4952,0.516
14.832,-0.2848,-0.0868,-0.1633,0.34
14.84,-0.4677,-0.3045,0.0481,0.56
14.842,-0.5621,-0.4907,0.1179,0.755
14.847,-0.6645,-0.679,0.0727,0.953
14.851,-0.8085,-0.7212,0.0944,1.088
14.858,-0.6816,-0.7201,-0.2575,1.024
14.861,-0.6227,-0.6495,-0.4325,0.998
14.866,-0.8179,-0.4954,-0.5422,1.099
14.871,-0.744,-0.2244,-0.5723,0.965
14.875,-0.5302,0.0248,-0.4633,0.705
14.88,-0.2909,0.1327,-0.3538,0.477
14.885,-0.1429,0.1162,-0.1671,0.249
14.891,-0.0239,0.1019,-0.0128,0.105
14.895,0.0135,0.042,0.0398,0.059
14.9,0.0769,-0.0273,0.0363,0.089
14.904,0.1639,-0.0513,0.0577,0.181
14.91,0.234,-0.0395,0.0749,0.249
14.915,-0.0066,-0.2596,0.2026,0.329
14.919,0.085,-0.3217,0.2564,0.42
14.924,0.0041,-0.1017,0.1119,0.151
14.929,-0.7436,-0.4937,-0.5348,1.04
14.935,-1.4158,-0.0223,-0.235,1.435
14.94,-1.5731,-0.825,-1.5867,2.382
14.943,-2.1588,-0.5176,-1.1826,2.515
14.949,-2.1037,-0.227,-1.0015,2.341
14.953,-1.5062,-0.0704,-0.6943,1.66
14.959,-0.6857,3.6711,3.4133,5.059
14.963,3.3909,-0.1234,-1.3665,3.658
14.967,1.0529,-0.5035,-0.159,1.178
14.972,0.0313,-0.4051,0.0102,0.406
14.978,-1.263,-0.3329,-0.1397,1.314
14.982,-0.7886,-0.1121,-0.5176,0.95
14.987,-0.4057,0.1494,-0.6985,0.821
14.992,-0.0361,0.3561,-0.6146,0.711
15,0.9162,0.9572,-0.2938,1.357
15.002,2.5262,1.5387,0.3964,2.984
15.008,2.6587,1.6121,0.6925,3.185
15.012,1.2921,1.4478,0.7647,2.086
15.019,0.0855,0.8887,0.6996,1.134
15.022,-0.8329,0.2273,0.5988,1.051
15.026,-1.5613,-0.0937,0.1765,1.574
15.032,-1.2436,-0.8705,1.1338,1.895
15.036,0.1843,-0.8762,2.1899,2.366
15.04,0.8472,0.8843,-0.8236,1.476
15.047,0.568,0.4982,-0.7482,1.063
15.05,-0.9866,-0.4115,-0.463,1.165
15.055,-0.7661,-0.5981,0.2937,1.015
15.059,0.2548,-0.3875,0.3507,0.581
15.067,1.1193,0.0355,0.1952,1.137
15.069,0.8994,0.1829,-0.2535,0.952
15.077,2.1588,2.2203,1.4087,3.402
15.081,-0.366,-1.7985,-1.934,2.666
15.085,0.5938,-0.0859,-0.5286,0.8
15.089,-0.1519,0.4032,-0.6846,0.809
15.094,-0.1713,0.1175,-1.0448,1.065
15.1,-0.0729,0.4751,-0.6363,0.797
15.104,-0.3014,0.1631,-0.5647,0.661
15.108,-0.5751,-0.0861,-0.0048,0.582
15.115,-0.6965,-0.4161,0.1284,0.821
15.119,-0.6615,-0.7815,0.0486,1.025
15.123,-0.8049,-0.8163,-0.0317,1.147
15.127,-0.6748,-0.8246,-0.0555,1.067
15.133,-0.5701,-0.7897,-0.0204,0.974
15.138,0.2603,-0.1428,0.0187,0.298
15.142,1.0262,0.3359,-0.4426,1.167
15.149,0.8594,0.2022,-0.8833,1.249
15.156,-0.9955,-0.9207,-0.8553,1.603
15.157,-1.9607,-1.4059,-0.5337,2.471
15.162,-1.9905,-1.1923,-0.5393,2.382
15.167,-1.5588,-0.606,-0.7046,1.815
15.172,-1.3747,-0.2714,-0.6652,1.551
15.176,-1.4808,-0.2575,-0.3042,1.534
15.181,-1.5119,-0.0859,-0.0333,1.515
15.186,-1.1244,0.1644,0.0453,1.137
15.19,-0.6193,0.1897,0.228,0.687
15.196,-0.1539,0.3081,0.1923,0.394
15.201,0.3085,0.3617,0.0192,0.476
15.205,0.6847,0.2908,-0.1073,0.752
15.21,0.9014,0.2653,-0.2071,0.962
15.218,0.9422,0.2206,-0.3118,1.017
15.219,1.0731,0.1687,-0.1492,1.096
15.224,1.1003,0.1861,-0.0804,1.119
15.232,1.096,-0.3272,0.1239,1.151
15.234,0.5779,0.1469,0.1775,0.622
15.239,-0.0373,0.1018,-0.0151,0.11
15.245,-0.4142,-0.0649,0.0214,0.42
15.249,-0.773,-0.083,0.2011,0.803
15.253,-0.7174,0.0041,0.4051,0.824
15.259,-0.8066,0.4352,0.4189,1.008
15.265,-0.4025,0.4404,0.2356,0.641
15.269,-0.2189,0.2997,0.151,0.401
15.273,-0.2433,0.1999,-0.1939,0.37
15.278,-0.0068,0.4251,-0.6244,0.755
15.285,0.1219,0.6955,-0.5621,0.903
15.29,0.4536,0.4709,-0.3022,0.72
15.293,0.7017,0.3949,-0.2082,0.832
15.3,0.4558,0.3618,-0.3299,0.669
15.304,0.1721,0.3696,-0.6101,0.734
15.307,0.2857,0.2294,-0.6813,0.774
15.312,0.0823,0.2424,-0.5868,0.64
15.317,-0.2326,0.2556,-0.6159,0.706
15.323,-0.0471,0.1757,-0.3458,0.391
15.327,0.2758,0.1319,0.6392,0.709
15.34,-0.2928,0.1476,1.1909,1.235
15.341,-0.2045,0.3948,1.6788,1.737
15.342,0.0793,0.3209,2.0182,2.045
15.348,-0.2398,0.5209,2.2038,2.277
15.355,-0.6388,0.679,1.8065,2.033
15.356,-0.9278,0.7358,1.1158,1.627
15.361,-0.948,1.038,0.5638,1.515
15.368,-0.8386,0.7277,0.0851,1.114
15.37,-0.6836,0.6132,-0.3079,0.969
15.375,0.1507,0.3527,-0.8676,0.949
15.381,1.0358,-0.1251,-1.9013,2.169
15.387,1.8814,-0.461,-1.8289,2.664
15.394,2.0282,-0.8323,-1.4889,2.65
15.397,1.6039,-1.1505,-1.3151,2.372
15.403,1.188,-0.863,-0.5945,1.584
15.405,0.2239,-0.2027,-0.0193,0.303
15.41,-0.1842,-0.2717,-0.1877,0.378
15.415,-0.3238,-0.8898,0.2231,0.973
15.419,-0.9555,-1.748,0.5233,2.06
15.423,-1.1292,-1.627,0.0071,1.98
15.428,-0.369,-1.0225,-1.0131,1.486
15.44,0.283,-0.803,-1.4597,1.69
15.444,0.5736,-0.8177,-1.6314,1.913
15.447,1.1285,-0.7248,-1.5176,2.025
15.448,1.4728,-0.8305,-1.1657,2.054
15.452,1.7774,-0.9626,-0.5731,2.101
15.457,1.9114,-1.0831,0.2513,2.211
15.462,1.2677,-1.2493,0.9039,1.996
15.468,0.5723,-1.3344,1.0865,1.814
15.471,-0.2887,-1.0636,1.2114,1.638
15.476,-1.2032,-0.492,0.8399,1.548
15.484,-1.9748,0.2298,0.3924,2.026
15.49,-2.7614,0.1004,0.0496,2.764
15.49,-2.4926,1.2214,0.1794,2.782
15.497,-2.4687,1.6581,0.3015,2.989
15.502,-2.3318,1.7551,0.1255,2.921
15.506,-1.2369,1.6513,0.1515,2.069
15.51,-0.5382,1.2943,0.0803,1.404
15.517,0.0264,0.8159,0.0428,0.817
15.522,0.2331,0.8374,0.048,0.871
15.524,0.0441,0.5984,-0.1838,0.628
15.531,0.0477,0.2688,-0.2817,0.392
15.536,0.1311,-0.0293,-0.2774,0.308
15.541,0.2964,-0.0737,-0.1616,0.346
15.544,0.2901,-0.1944,-0.1136,0.367
15.55,0.3949,-0.1191,-0.0091,0.413
15.554,0.4314,-0.1491,-0.2827,0.537
15.558,0.2111,-0.148,-0.4296,0.501
15.564,0.1305,-0.0825,-0.4595,0.485
15.573,0.2108,-0.0481,-0.3684,0.427
15.575,0.1219,-0.1046,-0.3586,0.393
15.579,0.1366,-0.2543,-0.3555,0.458
15.584,0.2738,-0.2462,-0.316,0.485
15.588,0.3041,-0.353,-0.2407,0.524
15.593,0.1799,-0.4358,-0.2112,0.517
15.597,-0.0175,-0.4635,-0.2799,0.542
15.602,-0.0735,-0.4314,-0.3893,0.586
15.607,0.0118,-0.2919,-0.3745,0.475
15.612,0.3072,-0.0115,-0.2113,0.373
15.617,0.3037,0.0725,-0.103,0.329
15.622,-0.1702,-0.1305,-0.2642,0.34
15.626,0.0304,-0.006,-0.4268,0.428
15.632,0.1298,-0.1492,-0.2904,0.351
15.636,0.1783,-0.2563,-0.2282,0.387
15.64,0.3293,-0.3656,-0.0423,0.494
15.646,0.5971,-0.3934,0.0569,0.717
15.65,0.7884,-0.2635,0.1149,0.839
15.655,0.8129,-0.2963,-0.0468,0.867
15.661,0.3984,-0.3603,-0.1814,0.567
15.665,0.4753,-0.3143,-0.1044,0.579
15.67,0.5136,-0.1727,-0.2901,0.615
15.675,0.1421,-0.4233,-0.2995,0.538
15.68,-0.3899,0.0243,0.2009,0.439
15.684,-0.5127,0.2996,0.2942,0.663
15.69,-0.3376,0.2307,0.4793,0.63
15.694,-0.3752,-0.23,0.2622,0.512
15.699,-0.5878,0.1773,-0.0107,0.614
15.704,-0.3624,0.1758,-0.1303,0.423
15.709,1.3131,-0.2606,0.095,1.342
15.713,0.1411,-0.4721,-0.5163,0.714
15.718,-0.3147,-0.5421,-0.6517,0.904
15.723,-0.1713,-0.6333,-0.6337,0.912
15.728,0.284,-0.4016,-0.7864,0.928
15.733,0.3107,-0.4428,-0.7407,0.917
15.738,0.1984,-0.2428,-1.3319,1.368
15.743,0.0805,-0.1628,-1.4471,1.458
15.748,-1.7247,1.3005,-1.4921,2.625
15.753,-5.8615,3.1658,-1.2612,6.78
15.758,-3.2775,0.9617,-1.5221,3.739
15.763,-1.232,-0.2452,-1.3384,1.836
15.767,1.0228,-1.6418,0.6127,2.029
15.772,2.6954,-1.5314,2.74,4.137
15.777,3.1455,-0.2458,2.9931,4.349
15.784,2.9334,0.5,2.2005,3.701
15.786,2.4909,0.5422,1.1937,2.815
15.791,2.0094,0.0372,0.4303,2.055
15.8,2.1412,-0.6437,0.0217,2.236
15.801,2.7095,-1.5673,-0.0783,3.131
15.806,2.6133,-1.5122,-0.1634,3.024
15.81,1.7124,-1.0484,-0.1398,2.013
15.818,-0.5105,-0.0453,0.1602,0.537
15.826,-5.1603,2.6963,0.7972,5.877
15.826,-7.4823,4.9971,1.6362,9.145
15.83,-5.1692,2.0826,0.6201,5.607
15.838,-2.6478,0.0251,0.3217,2.667
15.841,-0.3269,-0.3471,0.4865,0.681
15.85,0.7704,-0.3678,0.1001,0.86
15.85,0.7761,-0.3459,-0.4197,0.948
15.856,0.7774,-0.1142,-0.6407,1.014
15.859,0.9545,0.2986,-0.5239,1.129
15.865,1.1974,0.5554,-0.1334,1.327
15.869,0.9361,0.4127,-0.1198,1.03
15.874,0.2835,0.4353,0.2449,0.574
15.88,0.8125,0.3624,0.4361,0.991
15.884,2.0343,0.1221,-0.195,2.047
15.889,1.3234,3.2541,3.8186,5.189
15.893,3.3041,-2.2479,4.5678,6.069
15.901,3.8128,-2.9848,-0.1024,4.843
15.905,2.0983,-1.685,-0.8405,2.819
15.908,1.277,-0.3987,-0.8039,1.561
15.915,0.5247,0.3337,-1.0927,1.257
15.918,0.1419,0.3647,-1.3495,1.405
15.923,-0.1992,0.4288,-1.3284,1.41
15.927,-0.3544,0.476,-1.1516,1.296
15.932,-0.2578,0.3103,-0.8839,0.972
15.938,-0.2183,-0.2424,-0.5231,0.617
15.941,-0.4507,-0.455,-0.3545,0.732
15.947,-0.5346,-0.3734,-0.2052,0.684
15.951,-0.2939,-0.3684,-0.1393,0.491
15.957,-0.2707,-0.2225,-0.0279,0.351
15.961,-0.4071,0.3224,-0.1747,0.548
15.966,-1.3878,0.8305,-0.7847,1.798
15.971,-2.1213,0.8626,-1.6383,2.816
15.976,-1.5223,0.4122,-1.9142,2.48
15.98,0.2666,-0.46,-1.4968,1.588
15.985,1.0108,-1.3808,-0.743,1.866
15.991,1.2748,-1.6048,-0.0396,2.05
15.995,1.056,-1.3889,0.6028,1.846
16,1.483,-1.0828,1.1973,2.192
16.005,-0.1997,-0.572,1.2527,1.391
16.009,-1.5342,-0.0668,1.0325,1.851
16.014,-1.6972,0.2657,0.7565,1.877
16.019,-1.2232,0.5071,0.723,1.509
16.024,-0.7697,0.268,0.7954,1.139
16.03,-0.6738,0.1797,0.8227,1.078
16.036,-0.7958,0.3615,0.6689,1.101
16.04,-0.2517,0.2466,0.4302,0.556
16.043,0.404,0.3206,0.1116,0.528
16.048,0.7321,0.1934,-0.0262,0.758
16.054,0.6428,0.0137,-0.0317,0.644
16.058,0.3585,0.0755,0.0821,0.375
16.067,0.1752,0.3906,0.1933,0.47
16.068,0.2166,0.4568,0.1848,0.538
16.074,0.1097,0.6304,0.0234,0.64
16.077,0.2202,0.5051,-0.1835,0.581
16.084,0.3356,0.2105,-0.2861,0.489
16.088,0.3698,0.1554,-0.3399,0.526
16.092,0.2059,0.3158,-0.4311,0.573
16.101,0.1811,0.3923,-0.3102,0.532
16.102,0.3119,0.2419,-0.348,0.526
16.112,0.252,-0.0062,-0.3747,0.452
16.112,0.3981,-0.3423,-0.3668,0.641
16.118,0.0954,-0.4913,-0.2983,0.583
16.121,-0.09,-0.5396,-0.152,0.568
16.126,-0.2127,-0.7264,-0.114,0.765
16.131,0.092,-0.3202,-0.1046,0.349
