time,ax,ay,az,aT
0.008,-0.2065,0.4544,-0.778,0.924
0.008,-0.0211,0.4616,-0.3758,0.596
0.008,0.1289,0.437,-0.0226,0.456
0.008,0.2609,0.3511,0.2584,0.508
0.011,0.3801,0.2413,0.4321,0.624
0.017,0.4535,0.1859,0.5303,0.722
0.022,0.4116,0.1987,0.5651,0.727
0.032,0.3383,0.1866,0.5343,0.659
0.033,0.2548,0.1444,0.4667,0.551
0.035,0.1845,0.1056,0.2523,0.33
0.041,0.1076,0.0899,-0.0183,0.141
0.045,-0.0428,0.1598,-0.3384,0.377
0.051,-0.5532,0.2062,-0.6246,0.859
0.055,-0.2823,0.2557,-0.9368,1.011
0.06,-0.0172,0.3042,-0.9264,0.975
0.064,-0.0529,0.2593,-0.8454,0.886
0.07,0.1547,0.0999,-0.6872,0.711
0.079,0.3012,0.1126,-0.4468,0.55
0.08,0.5359,0.3539,-0.229,0.682
0.084,0.3964,0.2872,0.0794,0.496
0.089,-0.1166,0.1093,0.2952,0.336
0.094,-0.5071,-0.0316,0.2675,0.574
0.099,-0.6999,-0.0992,0.0772,0.711
0.103,-0.6592,-0.0639,-0.0487,0.664
0.109,-0.4971,-0.0335,0.0785,0.504
0.113,-0.2972,-0.0541,0.3921,0.495
0.119,-0.186,-0.1722,0.6558,0.703
0.122,-0.1079,-0.2881,0.8202,0.876
0.128,-0.0429,-0.3834,0.8786,0.96
0.133,0.012,-0.4026,0.917,1.002
0.137,0.0049,-0.3074,0.9618,1.01
0.143,-0.0616,-0.1576,0.9985,1.013
0.147,-0.1206,-0.0273,1.0534,1.061
0.152,-0.1409,-0.0099,1.0334,1.043
0.159,-0.1465,-0.0379,0.9527,0.965
0.163,-0.137,-0.0775,0.8087,0.824
0.166,-0.2389,-0.1375,0.7447,0.794
0.172,-0.3518,-0.1004,0.6026,0.705
0.177,-0.3635,-0.0279,0.3774,0.525
0.181,-0.401,0.064,0.3029,0.507
0.186,-0.563,0.1518,0.4073,0.711
0.195,-0.604,0.1851,0.5446,0.834
0.195,-0.5244,0.1733,0.6024,0.817
0.2,-0.415,0.1257,0.617,0.754
0.205,-0.3162,0.0996,0.5812,0.669
0.211,-0.2582,0.1143,0.4857,0.562
0.214,-0.262,0.146,0.3664,0.474
0.219,-0.2511,0.176,0.2231,0.379
0.226,-0.2759,0.2098,0.0768,0.355
0.229,-0.2678,0.2263,-0.0343,0.352
0.234,-0.2291,0.2471,-0.1082,0.354
0.239,-0.2242,0.2006,-0.1686,0.345
0.245,-0.0811,0.0894,-0.1297,0.177
0.249,0.1164,0.1072,-0.1779,0.238
0.253,0.0625,0.263,-0.1026,0.289
0.258,-0.0318,0.3103,-0.0472,0.316
0.263,0.0561,0.2803,-0.0857,0.298
0.268,0.1493,0.2232,-0.127,0.297
0.273,0.1691,0.1723,-0.109,0.265
0.278,0.1371,0.1536,-0.0362,0.209
0.283,0.0886,0.0994,0.0938,0.163
0.287,-0.1328,-0.1647,0.3741,0.43
0.292,-1.1145,0.1708,0.654,1.303
0.297,-1.0314,0.5658,0.0095,1.176
0.303,-0.5546,0.5761,-0.5038,0.945
0.309,-0.3922,0.4562,-0.2148,0.639
0.312,-0.2264,0.2473,0.2226,0.403
0.317,-0.0313,0.0909,0.3513,0.364
0.322,0.0465,0.0802,0.3865,0.397
0.327,0.0527,0.2125,0.4288,0.481
0.331,0.0981,0.3395,0.4831,0.599
0.336,0.2172,0.3963,0.5305,0.697
0.341,0.3483,0.378,0.4685,0.696
0.346,0.4754,0.2875,0.4022,0.686
0.35,0.5602,0.1825,0.3483,0.684
0.355,0.5311,0.147,0.3926,0.677
0.36,0.4048,0.1878,0.3988,0.598
0.365,0.2554,0.2978,0.3479,0.524
0.37,0.1711,0.3888,0.2182,0.478
0.381,0.1661,0.4178,0.1221,0.466
0.381,0.2042,0.4159,0.0548,0.467
0.385,0.2036,0.3639,-0.0196,0.417
0.389,0.2121,0.2878,-0.1463,0.386
0.394,0.1646,0.143,-0.254,0.335
0.399,-0.0014,0.0949,-0.3597,0.372
0.404,-0.095,0.125,-0.3034,0.342
0.409,-0.0568,0.2189,-0.1116,0.252
0.413,0.0388,0.3283,0.0649,0.337
0.418,0.1377,0.3571,0.0497,0.386
0.423,0.1935,0.3624,-0.0634,0.416
0.428,0.1743,0.3586,-0.1213,0.417
0.433,0.1189,0.3696,-0.1407,0.413
0.437,0.063,0.3532,-0.232,0.427
0.443,-0.0487,0.3743,-0.3283,0.5
0.447,-0.1377,0.4049,-0.4275,0.605
0.452,-0.2024,0.4306,-0.4938,0.686
0.458,-0.1933,0.4355,-0.5179,0.704
0.462,-0.1897,0.4551,-0.5022,0.704
0.469,-0.2047,0.4636,-0.5114,0.72
0.473,-0.1415,0.4759,-0.4932,0.7
0.49,-0.0406,0.4366,-0.3994,0.593
0.494,0.1487,0.3648,-0.2301,0.456
0.498,0.3107,0.2395,-0.0252,0.393
0.502,0.4537,0.1335,0.113,0.486
0.504,0.4956,0.0501,0.2209,0.545
0.506,0.454,-0.0563,0.3417,0.571
0.506,0.4112,-0.1579,0.4517,0.631
0.526,0.3391,-0.2194,0.4482,0.603
0.527,0.1728,-0.3414,0.3983,0.552
0.528,-0.1843,-0.6627,0.3235,0.76
0.528,0.0185,-0.6178,0.4217,0.748
0.53,0.1862,-0.5081,0.2576,0.599
0.535,0.0447,-0.3186,0.0034,0.322
0.54,-0.1701,-0.1785,-0.023,0.248
0.551,-0.3458,-0.0824,0.0515,0.359
0.551,-0.4589,0.0553,0.1407,0.483
0.555,-0.5625,0.1655,0.2301,0.63
0.561,-0.5213,0.2817,0.3198,0.673
0.565,-0.4149,0.3156,0.3643,0.636
0.568,0.0546,-0.0432,0.3133,0.321
0.573,0.3037,-0.4711,0.0498,0.563
0.578,-0.1305,-0.0474,0.3577,0.384
0.583,-0.2092,0.1502,0.5988,0.652
0.588,0.0779,0.2432,0.5007,0.562
0.597,0.5289,0.1736,0.3819,0.675
0.598,0.8121,0.1035,0.3957,0.909
0.603,0.8189,0.1757,0.4414,0.947
0.642,0.5525,0.2775,0.4019,0.737
0.644,0.0187,0.4763,0.2534,0.54
0.645,-0.3867,0.6178,0.0625,0.731
0.646,-0.3637,0.4688,0.0322,0.594
0.646,-0.3712,0.2696,0.1238,0.475
0.647,-0.2443,0.1186,0.3515,0.444
0.647,-0.0874,0.1014,0.5717,0.587
0.648,-0.0347,0.2867,0.6316,0.695
0.648,-0.6945,1.9881,0.6917,2.217
0.653,-0.5873,2.3656,0.3263,2.459
0.656,-0.3579,1.3867,-0.2276,1.45
0.662,-0.2026,0.8512,-0.6905,1.115
0.666,-0.7691,1.3352,-1.1056,1.896
0.671,-0.2634,1.5255,-0.7487,1.72
0.684,1.2388,0.7666,-0.4836,1.535
0.685,1.0939,0.5862,-1.0483,1.625
0.687,0.899,0.169,-0.7547,1.186
0.69,1.0036,-0.3492,-0.3399,1.116
0.703,0.982,-0.6153,-0.2819,1.193
0.704,0.929,-0.823,-0.1453,1.25
0.705,0.7025,-0.8606,-0.0735,1.113
0.71,0.5031,-0.8169,-0.0781,0.963
0.715,0.2561,-0.745,-0.0181,0.788
0.719,0.0143,-0.8147,0.0253,0.815
0.723,-0.0404,-1.077,0.0976,1.082
0.729,0.1211,-1.3862,0.1822,1.403
0.733,0.2056,-1.4708,0.2696,1.509
0.738,0.1115,-1.2718,0.391,1.335
0.743,-0.0384,-0.922,0.611,1.107
0.748,-0.2062,-0.5204,0.9463,1.099
0.753,-0.3653,-0.2018,1.3206,1.385
0.76,-0.3359,-0.0173,1.5094,1.546
0.763,-0.1868,0.0735,1.4125,1.427
0.767,-0.0806,0.1591,1.1596,1.173
0.772,-0.0494,0.2251,0.8845,0.914
0.778,0.1378,0.1453,0.6496,0.68
0.782,0.4058,0.0483,0.5744,0.705
0.787,0.4589,0.0201,0.5538,0.72
0.799,0.4381,0.0483,0.6381,0.775
0.8,0.3512,0.0727,0.8273,0.902
0.803,0.201,0.1173,0.9615,0.989
0.807,0.0175,0.0732,0.9671,0.97
0.817,-0.2171,-0.0471,0.8229,0.852
0.817,-0.2989,-0.3433,0.5006,0.677
0.82,-0.3191,-0.453,0.1119,0.565
0.826,-0.341,-0.2705,-0.5954,0.738
0.831,-0.4684,0.1653,-1.5195,1.599
0.835,-0.7698,0.8122,-2.3699,2.621
0.84,-0.8257,1.217,-2.8734,3.228
0.845,-0.5447,1.333,-2.9407,3.274
0.85,-0.0803,1.1436,-2.8281,3.052
0.854,0.3588,0.7029,-2.6222,2.738
0.86,0.5637,0.3327,-2.3248,2.415
0.864,0.5082,0.2716,-1.8254,1.914
0.869,0.2439,0.4845,-1.0427,1.175
0.874,-0.048,0.6735,-0.2566,0.722
0.879,-0.0788,0.511,0.1151,0.53
0.884,-0.0971,0.1715,0.2833,0.345
0.888,-0.2095,0.0256,0.3226,0.385
0.902,-0.3719,0.0632,0.1518,0.407
0.903,-0.5633,0.1308,-0.0351,0.579
0.93,-0.6752,0.1184,-0.1186,0.696
0.93,-0.5634,0.05,-0.0918,0.573
0.931,-0.5171,0.0836,0.0738,0.529
0.932,-0.5706,0.1638,0.2588,0.648
0.933,-0.5773,0.1496,0.3722,0.703
0.933,-0.4855,0.1485,0.3522,0.618
0.934,-0.3671,0.2249,0.218,0.483
0.937,-0.3608,0.3098,0.0534,0.479
0.944,-0.4239,0.5753,-0.0746,0.719
0.947,-0.3302,0.7038,-0.1997,0.803
0.952,-0.1833,0.6079,-0.2504,0.683
0.957,-0.0434,0.5416,-0.3223,0.632
0.962,-0.0087,0.654,-0.5282,0.841
0.967,-0.1481,0.7621,-0.706,1.049
0.971,0.3038,0.5179,-0.8179,1.015
0.99,-0.3603,0.5291,-0.2407,0.684
0.99,-0.2519,0.3254,0.1412,0.435
0.99,-0.08,0.2023,0.5458,0.588
0.99,-0.2607,0.2231,0.7249,0.802
1.002,-0.3656,-0.4304,0.7028,0.902
1.002,-0.5446,-0.509,0.7139,1.032
1.005,-0.5101,0.0804,0.5287,0.739
1.01,-0.5982,0.2908,0.2673,0.717
1.015,-0.6776,0.5138,0.2551,0.888
1.02,-0.4967,0.5079,0.351,0.792
1.025,-0.3153,0.3596,0.4188,0.636
1.029,-0.2035,0.2532,0.4177,0.529
1.034,-0.1902,0.2535,0.348,0.471
1.039,-0.2245,0.2575,0.3316,0.476
1.044,-0.2204,-0.0141,0.5212,0.566
1.048,-0.3387,0.3905,0.7827,0.938
1.053,-0.3581,0.5425,0.8966,1.107
1.059,-0.1991,0.3265,1.1119,1.176
1.063,-0.1205,0.1268,1.4789,1.489
1.067,-0.115,0.103,1.8687,1.875
1.072,-0.0685,0.1512,2.1167,2.123
1.078,-0.0432,0.204,2.3093,2.319
1.082,0.0038,0.1651,2.4279,2.433
1.087,-0.0026,0.0848,2.3461,2.348
1.096,-0.1147,0.0236,2.1788,2.182
1.097,-0.3232,0.1042,2.0169,2.045
1.102,-0.4369,0.1802,1.6664,1.732
1.107,-0.5264,0.2101,1.2087,1.335
1.111,-0.4732,0.1657,0.8674,1.002
1.116,-0.3197,0.1806,0.7135,0.802
1.121,-0.1965,0.2148,0.7082,0.766
1.126,-0.1984,0.6061,0.7648,0.996
1.131,-0.1216,0.8669,0.7188,1.133
1.135,0.3442,0.8689,0.7924,1.225
1.14,1.1514,1.0143,1.1294,1.905
1.146,0.7945,1.2999,1.6948,2.279
1.15,0.606,1.1966,1.9022,2.328
1.155,0.4806,0.9123,1.8462,2.115
1.16,1.502,0.0118,0.9804,1.794
1.165,1.8149,-0.5153,0.4809,1.947
1.169,1.6235,-0.7451,0.2531,1.804
1.174,1.2942,-0.7935,0.0296,1.518
1.18,1.1795,-0.9062,-0.2477,1.508
1.184,1.2773,-1.0246,-0.3491,1.674
1.189,1.4057,-1.1497,-0.4656,1.875
1.194,1.2872,-1.2837,-0.5711,1.905
1.199,0.9725,-1.3645,-0.6833,1.81
1.203,0.1722,-1.5116,-0.9769,1.808
1.209,-0.1405,-1.3371,-1.4606,1.985
1.213,-0.2327,-1.1828,-1.6753,2.064
1.219,-0.5085,-1.1704,-1.6626,2.096
1.224,-0.7688,-1.2304,-1.502,2.088
1.228,-1.118,-1.3813,-1.3565,2.236
1.232,-1.7168,-1.5461,-1.4251,2.715
1.238,-2.2901,-1.4154,-1.9718,3.337
1.243,-3.2813,-1.1719,-2.2631,4.155
1.247,-4.9931,-1.0554,-2.105,5.52
1.253,-7.0395,-0.9133,-2.0659,7.393
1.258,-8.4664,-0.3488,-2.2647,8.771
1.262,-9.647,0.2763,-2.1726,9.892
1.268,-10.0265,1.5676,-2.0656,10.356
1.272,-2.7892,3.6434,4.1282,6.172
1.282,-2.6794,5.4312,6.6026,8.959
1.282,-1.7683,5.6145,4.258,7.265
1.287,1.378,4.5705,3.6592,6.015
1.291,0.9285,2.4773,1.9649,3.295
1.296,1.1281,0.2931,0.3537,1.218
1.3,0.9016,-1.3715,-0.6642,1.771
1.307,1.407,-2.0127,-1.2212,2.743
1.312,2.3881,-1.8624,-1.3243,3.305
1.316,2.9484,-1.5373,-0.9586,3.461
1.321,3.1358,-1.1559,-0.6028,3.396
1.324,2.1637,-0.9857,-0.6081,2.454
1.33,0.7799,-1.0586,-0.9632,1.63
1.334,-0.1288,-1.0492,-1.2938,1.671
1.339,-0.2443,-0.9622,-1.7119,1.979
1.344,-0.484,-0.7461,-1.924,2.12
1.352,-0.8456,-0.4107,-2.0264,2.234
1.354,-1.2971,-0.0771,-2.3768,2.709
1.361,-3.0617,1.6897,-3.0519,4.641
1.364,-3.7129,2.1759,-3.968,5.854
1.369,-3.4982,1.463,-4.7455,6.074
1.373,-2.2962,0.5388,-5.2839,5.786
1.379,0.1188,-0.6049,-5.5312,5.565
1.383,1.5311,-0.792,-5.0349,5.322
1.388,2.035,-0.6466,-3.5621,4.153
1.395,1.931,-0.1256,-1.3986,2.388
1.397,1.8897,0.8384,1.6976,2.675
1.405,1.9392,1.2071,4.5288,5.072
1.407,1.4285,1.6847,6.2546,6.633
1.412,0.4489,1.5324,8.1084,8.264
1.417,0.1783,0.4525,8.8761,8.889
1.421,0.4214,-0.327,8.2806,8.298
1.426,0.9922,-0.521,7.4993,7.583
1.434,1.4123,-0.316,6.3786,6.541
1.436,1.4633,0.156,5.3337,5.533
1.441,1.4935,0.5839,4.3463,4.633
1.45,1.2876,0.6593,2.8902,3.232
1.451,0.7935,0.9265,1.8669,2.23
1.455,0.5765,0.9681,0.9167,1.453
1.463,0.2791,0.8444,0.3274,0.948
1.539,-0.1183,0.8034,0.2465,0.849
1.539,-0.6903,0.4211,0.1334,0.82
1.539,-1.0769,0.0968,0.4119,1.157
1.539,-0.9214,-0.1212,0.356,0.995
1.539,-0.4585,-0.3501,0.2416,0.625
1.54,0.2485,-0.4746,-0.0352,0.537
1.54,0.7648,-0.3648,-0.3521,0.918
1.54,1.2405,-0.0376,-0.2405,1.264
1.54,1.7688,0.2203,0.3323,1.813
1.54,2.15,0.2361,0.9927,2.38
1.54,1.7137,-0.1384,1.7969,2.487
1.541,0.8508,-0.793,2.5955,2.844
1.541,0.5518,-1.1348,3.4088,3.635
1.541,-0.0867,-1.4304,3.425,3.713
1.541,0.9366,-1.3738,3.1028,3.52
1.541,1.974,-0.9744,3.0562,3.766
1.544,3.0289,-0.4661,3.039,4.316
1.55,3.1131,-0.0895,3.0506,4.359
1.552,2.8453,0.175,2.9017,4.068
1.557,2.1291,0.2514,2.8412,3.559
1.563,1.4036,0.2245,2.9085,3.237
1.567,0.6233,0.1171,3.2912,3.352
1.571,-0.1873,-0.0032,3.8355,3.84
1.58,-1.0642,-0.1107,4.2472,4.38
1.581,-1.8927,-0.1409,4.4758,4.862
1.586,-2.2497,-0.0982,4.7953,5.298
1.591,-2.3032,0.0341,5.0821,5.58
1.596,-2.5571,0.0093,5.1076,5.712
1.6,-3.0415,-0.0308,5.1912,6.017
1.608,-3.6303,-0.2089,5.3524,6.471
1.61,-4.261,-0.4198,5.4869,6.96
1.617,-4.9635,-0.6713,5.7851,7.652
1.62,-5.5607,-0.8778,6.1167,8.313
1.625,-6.061,-1.0266,6.3877,8.865
1.629,-6.4414,-1.0819,4.0421,7.681
1.634,-0.2961,-0.475,-12.4518,12.464
1.639,-6.7224,1.973,-2.7626,7.531
1.644,-8.4702,1.9648,-3.5375,9.387
1.649,-6.4882,1.3337,-5.7674,8.783
1.654,-6.0145,1.0162,-6.5257,8.933
1.659,-5.6111,0.506,-6.3079,8.458
1.664,-5.1294,-0.2612,-5.8748,7.803
1.668,-4.6648,-1.27,-5.3605,7.219
1.673,-4.0535,-2.0771,-4.697,6.543
1.678,-3.5871,-2.6262,-4.0013,5.981
1.683,-3.1628,-2.951,-3.2624,5.418
1.688,-2.7867,-3.038,-2.5027,4.823
1.692,-2.4479,-2.8477,-1.8129,4.17
1.697,-2.0395,-2.5592,-1.3896,3.555
1.702,-1.6734,-2.4058,-1.0521,3.114
1.708,-1.5722,-2.3402,-0.6985,2.905
1.713,-1.7777,-2.0392,-0.266,2.718
1.717,-2.453,-1.4547,0.0243,2.852
1.722,-2.0575,-0.9422,0.6285,2.349
1.728,-1.1082,-0.0375,1.494,1.86
1.732,0.0722,0.9099,2.4519,2.616
1.737,0.8399,1.4701,2.7421,3.223
1.742,1.2653,1.6131,2.6845,3.378
1.748,1.4016,1.4716,2.7061,3.384
1.752,1.1432,1.0848,2.8144,3.226
1.757,0.8861,0.558,2.8838,3.068
1.761,0.9172,-0.0435,2.8376,2.982
1.766,1.0694,-0.7414,2.7114,3.007
1.77,1.1409,-1.4095,2.5649,3.141
1.778,1.0416,-2.027,2.398,3.308
1.78,0.9646,-2.4846,2.2383,3.48
1.785,0.895,-2.8383,2.164,3.68
1.789,0.8449,-3.0797,2.119,3.833
1.794,0.8154,-3.1671,2.0309,3.85
1.811,0.7364,-3.163,1.877,3.751
1.811,0.609,-3.1595,1.6495,3.616
1.812,0.4663,-3.1599,1.3575,3.471
1.814,0.2969,-3.0573,0.9986,3.23
1.819,0.1211,-2.7967,0.6749,2.88
1.823,-0.0758,-2.4559,0.3678,2.484
1.831,-0.3464,-2.0977,0.1188,2.129
1.833,-0.6954,-1.8426,-0.0903,1.972
1.839,-1.0358,-1.6101,-0.1872,1.924
1.843,-1.2611,-1.3698,-0.274,1.882
1.848,-1.3056,-1.1368,-0.3094,1.759
1.852,-1.2784,-0.9498,-0.2706,1.615
1.858,-1.296,-0.7475,-0.2041,1.51
1.862,-1.4118,-0.6438,-0.1338,1.557
1.867,-1.5629,-0.8262,-0.0865,1.77
1.872,-1.814,-0.8361,-0.1285,2.002
1.877,-2.1036,-0.6556,-0.4785,2.255
1.882,-2.1096,-0.5277,-1.26,2.513
1.887,-2.0349,-0.3097,-1.5479,2.575
1.891,-1.6045,-0.0046,-1.6519,2.303
1.896,-0.8714,0.2591,-1.5884,1.83
1.902,-0.246,0.4055,-1.5062,1.579
1.906,0.1016,0.3983,-1.4587,1.516
1.911,0.2086,0.1215,-1.4459,1.466
1.916,0.1409,-0.2588,-1.3635,1.395
1.92,0.0027,-0.6392,-1.1546,1.32
1.926,-0.1678,-0.9359,-0.9342,1.333
1.93,-0.4056,-1.1194,-0.7193,1.391
1.935,-0.571,-1.2452,-0.5564,1.479
1.94,1.6709,-2.3788,-0.5575,2.96
1.945,3.0118,-2.3024,-0.5502,3.831
1.95,2.1281,-1.9194,-0.7181,2.954
1.955,2.0606,-1.2233,-0.9515,2.578
1.959,0.4877,-1.1298,-0.9415,1.549
1.964,-0.7266,-1.3146,-0.96,1.783
1.969,-1.3707,-1.6653,-0.9317,2.35
1.974,-1.5617,-1.9059,-0.7656,2.58
1.979,-1.8074,-2.398,0.1317,3.006
1.984,-2.5268,-2.7609,2.4595,4.478
1.988,-2.8371,-2.2236,4.5874,5.834
1.994,-2.9456,-1.3134,5.3106,6.213
1.998,-2.893,-0.0154,4.6757,5.498
2.006,-2.873,1.1692,3.437,4.63
2.009,-2.9552,1.7634,2.2725,4.124
2.012,-2.9874,1.6995,1.516,3.756
2.017,-2.8082,1.3368,1.1636,3.321
2.022,-2.5628,0.9948,0.9734,2.916
2.027,-2.3338,0.6984,0.9111,2.601
2.032,-2.1754,0.4932,0.8583,2.39
2.037,-2.1119,0.3321,0.7657,2.271
2.042,-2.0996,0.2312,0.556,2.184
2.047,-1.8922,0.2493,0.2576,1.926
2.051,-1.0406,0.7922,-0.0982,1.312
2.056,-0.7855,0.678,-0.3466,1.094
2.061,-0.6657,0.3514,-0.2575,0.796
2.066,-0.604,-0.006,-0.133,0.618
2.071,-0.6139,-0.3708,-0.0147,0.717
2.076,-0.5155,-0.6931,0.0243,0.864
2.08,-0.3361,-0.9275,0.0305,0.987
2.085,-0.1599,-1.0882,0.0255,1.1
2.09,-0.0543,-1.2131,0.0198,1.214
2.095,0.0038,-1.3042,0.0289,1.305
2.1,0.015,-1.3465,0.0427,1.347
2.104,0.0577,-1.2774,0.0354,1.279
2.109,0.0913,-1.1399,0.0813,1.146
2.114,0.0987,-1.0174,0.164,1.035
2.119,0.1323,-0.8809,0.3101,0.943
2.124,0.1249,-0.7897,0.4936,0.94
2.129,-0.0808,-0.7242,0.6091,0.95
2.134,-0.3559,-0.6224,0.7523,1.039
2.139,-0.6221,-0.4391,0.841,1.134
2.143,-0.8961,-0.3325,0.9037,1.315
2.149,-1.1641,-0.3244,0.9533,1.539
2.153,-1.2976,-0.355,0.9501,1.647
2.158,-1.283,-0.3479,0.8882,1.599
2.163,-1.2525,-0.2744,0.7211,1.471
2.168,-1.2346,-0.2158,0.5491,1.368
2.172,-1.1937,-0.1532,0.4183,1.274
2.178,-1.0845,-0.1199,0.2763,1.126
2.182,-0.9573,-0.1806,0.1787,0.99
2.187,-0.8525,-0.3037,0.1346,0.915
2.192,-0.7628,-0.4414,0.1387,0.892
2.197,-0.6779,-0.5387,0.1734,0.883
2.201,-0.607,-0.586,0.2092,0.869
2.206,-0.581,-0.6646,0.1933,0.904
2.211,-0.4896,-0.6909,0.1015,0.853
2.216,-0.3641,-0.691,-0.1069,0.788
2.221,-0.2256,-0.6816,-0.3389,0.794
2.226,-0.1698,-0.7393,-0.4318,0.873
2.231,-0.1535,-0.838,-0.4031,0.942
2.235,-0.1642,-0.8297,-0.2515,0.882
2.241,-0.1892,-0.7438,-0.0977,0.774
2.246,-0.2379,-0.614,0.0193,0.659
2.25,-0.2477,-0.4573,0.1083,0.531
2.259,-0.2831,-0.3023,0.155,0.442
2.26,-0.3008,-0.1657,0.2235,0.41
2.265,-0.3321,-0.0473,0.2686,0.43
2.269,-0.3672,0.0435,0.412,0.554
2.274,-1.3184,-0.7665,8.5248,8.66
2.279,-1.5232,0.3801,8.9275,9.064
2.284,0.3647,1.2854,3.7436,3.975
2.292,-0.0543,0.6493,0.9842,1.18
2.293,-0.1651,0.4236,-0.2817,0.535
2.298,-0.2147,-0.1143,-0.6019,0.649
2.303,-0.3215,-0.547,0.0433,0.636
2.308,-0.5057,-0.8369,0.8519,1.297
2.313,-0.7066,-0.841,1.1771,1.61
2.318,-0.7117,-0.7491,1.2369,1.612
2.323,-0.4795,-0.7072,1.003,1.318
2.328,-0.2505,-0.7318,0.708,1.049
2.333,-0.1333,-0.7603,0.5068,0.923
2.337,-0.0179,-0.7594,0.4165,0.866
2.342,0.1366,-0.7314,0.4149,0.852
2.347,0.3118,-0.743,0.4452,0.921
2.352,0.492,-0.7506,0.5677,1.062
2.356,0.5942,-0.7465,0.6661,1.164
2.361,0.5858,-0.6923,0.6481,1.115
2.366,0.4602,-0.5692,0.5584,0.921
2.371,0.2338,-0.3994,0.5316,0.705
2.376,-0.0108,-0.1958,0.4743,0.513
2.381,-0.1672,-0.0359,0.3721,0.41
2.386,-0.2651,0.0922,0.2219,0.358
2.391,-0.2879,0.1501,0.1028,0.341
2.395,-0.3355,0.1312,0.0785,0.369
2.4,-0.3552,0.0554,0.0839,0.369
2.405,-0.3349,-0.079,0.0425,0.347
2.41,-0.3799,-0.2166,-0.0266,0.438
2.415,-0.4158,-0.3309,-0.0683,0.536
2.42,-0.4095,-0.4026,-0.142,0.592
2.425,-0.366,-0.494,-0.1754,0.639
2.429,-0.1446,-0.5902,-0.0912,0.614
2.434,0.0324,-0.6928,-0.0168,0.694
2.439,0.18,-0.7961,-0.0272,0.817
2.444,0.294,-0.8591,-0.0992,0.913
2.449,0.3982,-0.8936,-0.2111,1.001
2.453,0.4397,-0.9188,-0.2711,1.054
2.458,0.3896,-0.887,-0.3143,1.019
2.463,0.2599,-0.8199,-0.3193,0.917
2.468,0.1822,-0.7321,-0.3079,0.815
2.473,0.1041,-0.5685,-0.2806,0.642
2.477,0.0162,-0.4178,-0.2592,0.492
2.482,-0.0339,-0.2923,-0.2337,0.376
2.487,-0.0992,-0.288,-0.2564,0.398
2.492,-0.132,-0.2475,-0.3005,0.411
2.497,-0.1488,-0.3165,-0.2684,0.441
2.502,-0.1496,-0.4018,-0.2423,0.492
2.507,-0.1194,-0.4653,-0.1631,0.507
2.511,-0.1395,-0.5333,-0.0673,0.555
2.517,-0.0851,-0.6081,0.08,0.619
2.521,0.1013,-0.7091,0.4742,0.859
2.527,0.38,-0.6881,1.2468,1.474
2.531,0.5923,-0.5678,2.0708,2.227
2.536,0.5132,-0.6027,2.0333,2.182
2.541,0.2042,-0.5309,1.0738,1.215
2.546,0.1879,-0.5532,0.6831,0.899
2.551,0.033,-0.4058,0.6758,0.789
2.555,-0.262,-0.2429,0.5479,0.654
2.561,-0.4435,-0.1877,0.4183,0.638
2.567,-0.4688,-0.1282,0.4329,0.651
2.571,-0.4719,-0.11,0.527,0.716
2.577,-0.5509,-0.0906,0.5305,0.77
2.58,-0.646,-0.0467,0.4318,0.778
2.585,-0.6714,0.0068,0.3386,0.752
2.59,-0.5531,0.0121,0.2651,0.614
2.594,-0.3679,-0.0184,0.2881,0.468
2.6,-0.2209,-0.0721,0.2878,0.37
2.605,-0.1148,-0.1555,0.1962,0.275
2.609,-0.0501,-0.2919,0.0576,0.302
2.614,-0.0774,-0.3899,-0.1644,0.43
2.618,-0.1972,-0.6122,-0.0933,0.65
2.623,-0.0954,-0.5808,0.0585,0.592
2.629,0.0199,-0.4941,-0.0752,0.5
2.634,0.0745,-0.4184,0.1591,0.454
2.638,0.0763,-0.4492,0.1382,0.476
2.643,0.0374,-0.4239,0.089,0.435
2.648,0.0193,-0.4374,0.193,0.479
2.652,0.0071,-0.5208,0.3032,0.603
2.657,-0.0162,-0.6285,0.2673,0.683
2.662,-0.0457,-0.6798,0.0808,0.686
2.667,-0.115,-0.6272,-0.089,0.644
2.672,-0.1758,-0.5215,-0.1381,0.567
2.676,-0.1849,-0.4354,-0.1493,0.496
2.681,-0.211,-0.3379,-0.0712,0.405
2.686,-0.1991,-0.2651,0.1169,0.352
2.691,-0.1273,-0.2646,0.2396,0.379
2.696,-0.0672,-0.2906,0.2822,0.411
2.7,0.0053,-0.3591,0.3236,0.483
2.706,0.021,-0.501,0.3039,0.586
2.71,-0.013,-0.5843,0.195,0.616
2.715,-0.1138,-0.4179,0.2082,0.481
2.72,-0.2908,-0.3183,0.0803,0.439
2.725,-0.2406,-0.3813,0.0292,0.452
2.731,-0.2189,-0.3941,0.0398,0.453
2.734,-0.2282,-0.3834,0.0927,0.456
2.74,-0.2324,-0.3637,0.2234,0.486
2.745,-0.2148,-0.3972,0.3937,0.599
2.749,-0.1801,-0.3878,0.5457,0.693
2.754,-0.2138,-0.3758,0.6213,0.757
2.759,-0.2535,-0.3225,0.5624,0.696
2.763,-0.3184,-0.3,0.4819,0.651
2.768,-0.3513,-0.3013,0.4352,0.635
2.773,-0.3359,-0.2931,0.4901,0.663
2.778,-0.2584,-0.34,0.6162,0.75
2.783,-0.1689,-0.3887,0.6943,0.813
2.788,-0.0462,-0.4126,0.6776,0.795
2.792,0.0571,-0.4476,0.58,0.735
2.797,0.0962,-0.362,0.5323,0.651
2.802,0.1786,-0.3064,0.5891,0.688
2.807,0.1611,-0.2978,0.5347,0.633
2.812,0.1016,-0.2671,0.4326,0.518
2.817,0.0907,-0.2051,0.4693,0.52
2.822,0.1114,-0.191,0.5904,0.63
2.827,0.0729,-0.1389,0.695,0.712
2.832,-0.0124,-0.0991,0.744,0.751
2.836,0.0277,-0.2939,1.1094,1.148
2.841,-0.1878,-0.5657,0.9906,1.156
2.846,-0.3868,-0.4744,0.4733,0.774
2.851,-0.2777,-0.4261,0.2232,0.555
2.856,0.0389,-0.5079,0.2136,0.552
2.861,0.0848,-0.3343,0.2221,0.41
2.866,0.0947,-0.3858,0.2344,0.461
2.87,-0.2922,-0.6149,-0.0656,0.684
2.875,-0.1611,-0.2243,0.0301,0.278
2.882,-0.1861,-0.3483,0.0673,0.401
2.886,-0.1223,-0.4412,-0.0352,0.459
2.891,-0.3142,-0.5319,-0.318,0.695
2.896,-0.4132,-0.4707,-0.3963,0.741
2.901,-0.4247,-0.3443,-0.281,0.615
2.906,-0.2747,-0.1191,-0.0987,0.315
2.91,-0.5774,-0.1768,-0.1965,0.635
2.914,0.085,0.233,0.5063,0.564
2.919,0.2826,0.1547,0.8815,0.939
2.924,0.2509,0.1398,0.8325,0.881
2.93,0.1861,0.031,0.7575,0.781
2.934,0.2069,-0.0622,0.6582,0.693
2.939,0.2317,-0.0418,0.639,0.681
2.943,0.2485,0.1737,0.6642,0.73
2.949,0.2674,0.4047,0.8252,0.957
2.954,0.1915,0.5226,0.8382,1.006
2.96,0.0405,0.4481,0.4935,0.668
2.966,-0.1309,0.3739,-0.0333,0.398
2.968,-0.2916,-0.0118,-0.3812,0.48
2.973,-0.43,-0.2698,-0.9693,1.094
2.977,-0.4244,-0.3505,-1.4039,1.508
2.982,-0.3282,-0.4907,-1.5024,1.614
2.987,-0.3638,-0.7949,-1.4191,1.667
2.992,-2.2736,-2.8411,-2.4234,4.372
2.997,-1.9547,-1.6194,-2.6081,3.639
3.002,-0.8811,-0.1801,-1.3582,1.629
3.007,0.1044,0.0771,-0.048,0.138
3.012,0.234,0.7133,1.2813,1.485
3.017,0.0148,1.4787,3.4279,3.733
3.023,-1.3299,1.2349,4.3107,4.677
3.027,-1.8393,1.0286,3.5657,4.142
3.034,-2.3478,0.8391,2.3634,3.435
3.036,-2.0523,-0.0574,1.9053,2.801
3.045,-1.0399,-0.7755,1.3755,1.891
3.046,-0.1115,-0.6979,0.2274,0.742
3.051,0.422,-1.1697,-0.6641,1.41
3.057,1.6992,-6.1156,-3.97,7.487
3.06,2.9605,-4.7965,-6.2554,8.42
3.065,2.6605,-0.1583,-3.3352,4.269
3.072,2.5324,0.1074,0.4759,2.579
3.076,2.1506,0.0696,1.2439,2.485
3.079,0.7471,0.355,-0.6103,1.028
3.084,-0.477,0.3144,-2.1888,2.262
3.089,-0.4533,-0.5052,-1.9286,2.045
3.094,-0.2444,-1.1147,-0.7648,1.374
3.102,-0.2751,-0.6506,0.0157,0.707
3.103,-0.1558,0.1545,0.7497,0.781
3.113,-0.1156,0.5611,1.1938,1.324
3.113,-0.3785,0.5728,0.9779,1.195
3.122,-0.6694,0.3159,0.3517,0.819
3.123,-0.5515,0.0463,0.0774,0.559
3.132,-0.1283,-0.2429,0.1754,0.326
3.134,-0.0479,-0.2566,0.2036,0.331
3.14,-0.2789,-0.0418,0.355,0.453
3.143,-0.3618,-0.4397,1.0802,1.221
3.153,-0.5665,-0.7013,0.9165,1.286
3.156,0.0611,-5.4817,-0.5793,5.513
3.16,0.6358,-18.1311,-9.2667,20.372
3.166,2.5782,-14.3603,-11.1139,18.341
3.171,5.288,-5.9886,0.6779,8.018
3.174,6.5351,-0.1167,3.0456,7.211
3.18,7.7847,3.7288,1.7626,8.81
3.184,4.6583,5.9623,2.149,7.866
3.186,-3.4843,7.0185,7.1451,10.604
3.195,-7.8046,4.7209,0.0282,9.121
3.196,-7.353,4.271,2.711,8.925
3.201,-7.3079,2.2772,3.338,8.351
3.207,-6.3461,1.7302,4.5504,7.998
3.212,1.4568,1.0328,10.1708,10.326
3.217,5.1542,-3.0843,12.4449,13.819
3.222,11.2795,-7.6154,9.5974,16.653
3.227,2.8145,-2.9634,6.1333,7.37
3.232,-5.9986,5.413,-3.4693,8.793
3.236,-2.9917,5.9291,-1.9967,6.935
3.242,-4.0529,4.7206,-1.4805,6.395
3.248,-3.9223,3.1008,-1.4835,5.215
3.252,-2.6007,1.3482,-1.704,3.389
3.256,-0.7112,-0.3133,-0.6506,1.013
3.26,1.3266,-1.3104,-0.1307,1.869
3.269,0.5013,-0.4128,-0.508,0.825
3.27,-0.1718,0.4958,-0.0528,0.527
3.277,-0.9629,0.6747,0.6882,1.362
3.279,-1.3308,0.1017,0.4164,1.398
3.288,-0.932,-0.4437,0.3522,1.091
3.29,-0.3864,-0.6821,0.4571,0.907
3.299,-0.3651,-0.509,0.9684,1.153
3.301,-0.482,-0.1387,1.5895,1.667
3.305,-0.5524,-0.0281,2.1889,2.258
3.312,-0.4039,-0.2554,2.2471,2.297
3.316,-0.3835,-0.3371,1.8076,1.878
3.32,-0.272,-0.3734,1.5441,1.612
3.324,-0.3283,-0.3139,1.4242,1.495
3.33,0.032,-0.2647,1.5502,1.573
3.335,0.2989,-0.294,1.9037,1.949
3.34,0.0347,-0.2164,1.922,1.935
3.345,-0.0083,-0.0459,1.885,1.886
3.35,-0.1133,-0.1509,1.6697,1.68
3.353,0.1213,-0.648,1.4928,1.632
3.359,0.3753,-1.1564,1.02,1.587
3.362,-0.1807,-1.013,0.7178,1.255
3.371,-0.509,-0.7432,0.4569,1.01
3.372,-0.7845,-0.5537,0.2885,1.003
3.377,-0.8805,-0.5409,0.1189,1.04
3.385,-0.895,-0.5008,-0.0827,1.029
3.393,-0.8398,-0.4208,-0.2713,0.978
3.396,-0.9037,-0.2621,-0.3135,0.992
3.398,-1.0099,-0.066,-0.2723,1.048
3.401,-1.2158,-0.5267,-0.3751,1.377
3.407,-1.4237,-1.5901,-0.7616,2.266
3.413,-2.4306,-5.3666,-1.9559,6.208
3.416,-2.6159,-5.9493,-3.1078,7.204
3.422,-2.78,-3.7577,-2.7376,5.417
3.426,-1.5585,-0.4198,-1.0478,1.924
3.432,0.2785,1.4166,0.278,1.47
3.436,1.654,1.5007,0.9516,2.428
3.44,1.5419,1.1105,1.3168,2.312
3.446,0.6684,0.7052,1.077,1.451
3.451,0.005,-0.2986,0.2299,0.377
3.456,0.1984,-1.5925,-0.2636,1.626
3.46,0.4316,-2.0192,-0.4146,2.106
3.466,0.1104,-1.4301,0.3532,1.477
3.472,-0.5677,-0.3806,0.5682,0.889
3.474,0.119,0.1335,1.079,1.094
3.481,0.1418,0.2018,1.645,1.663
3.486,-0.1709,0.3716,1.7493,1.797
3.489,-0.5847,0.6444,1.503,1.737
3.493,-0.6694,0.7272,1.2684,1.608
3.5,-0.4248,0.5912,1.0537,1.281
3.504,-0.3593,0.4186,0.8827,1.041
3.511,-0.3717,0.2111,0.8941,0.991
3.513,-0.2126,0.0976,1.0245,1.051
3.518,-0.0101,-0.0085,1.32,1.32
3.525,0.0461,-0.2792,1.4482,1.476
3.529,0.1892,-0.4388,1.4285,1.506
3.533,0.247,-0.4896,1.4167,1.519
3.539,0.2731,-0.6322,1.3445,1.511
3.548,0.3056,-0.8001,1.2096,1.482
3.551,0.2675,-0.8979,1.2529,1.564
3.553,0.216,-0.818,1.3632,1.604
3.558,0.2775,-0.5464,1.4263,1.552
3.56,0.3749,-0.2695,1.3239,1.402
3.567,0.4692,-0.0661,1.1329,1.228
3.571,0.5381,0.0807,0.9033,1.055
3.576,0.5787,0.2263,0.5945,0.86
3.578,0.6068,0.3756,0.2495,0.756
3.583,0.6125,0.4974,-0.0745,0.793
3.589,0.638,0.6034,-0.2685,0.918
3.594,0.6212,0.6553,-0.3486,0.968
3.599,0.6193,0.6074,-0.3197,0.925
3.604,0.6637,0.522,-0.2663,0.885
3.608,0.7044,0.4136,-0.1704,0.834
3.613,0.7563,0.3255,-0.0955,0.829
3.617,0.7692,0.2503,-0.0518,0.811
3.623,0.7767,0.1474,0.0133,0.791
3.631,0.7096,0.0526,0.0802,0.716
3.632,0.6782,-0.0177,0.2005,0.707
3.637,0.6708,-0.078,0.3016,0.74
3.641,0.6659,-0.1164,0.3806,0.776
3.648,1.2133,-0.5107,0.5493,1.426
3.652,5.05,-3.5052,0.9062,6.214
3.658,3.2472,-2.3682,0.3164,4.032
3.662,-1.2325,0.7939,0.1633,1.475
3.67,-2.6325,2.0304,0.732,3.404
3.671,-0.8947,1.2432,0.7067,1.687
3.677,1.5469,0.1183,0.4316,1.61
3.681,3.7426,-1.1798,0.4928,3.955
3.686,2.4449,-0.5775,0.1974,2.52
3.69,0.5836,0.345,0.2693,0.729
3.695,0.5652,0.0838,0.6232,0.845
3.701,1.3629,-0.5257,0.7162,1.627
3.705,1.3771,-0.5144,0.7194,1.637
3.711,0.6035,0.0549,0.873,1.063
3.715,-0.0868,0.5408,1.1466,1.271
3.72,-0.2823,0.6588,1.2098,1.406
3.725,-0.1267,0.6107,1.0909,1.257
3.73,-0.2271,0.8495,0.7207,1.137
3.734,-0.2825,0.8461,0.3227,0.949
3.738,-0.4391,0.8009,-0.1911,0.933
3.743,-1.7068,1.1191,-1.3182,2.43
3.749,0.0447,0.6182,0.2512,0.669
3.752,-0.0306,0.3552,0.0303,0.358
3.761,-0.0387,0.272,-0.4354,0.515
3.766,0.4562,0.104,0.261,0.536
3.767,0.0382,-0.0297,0.3132,0.317
3.772,-0.1232,-0.2295,0.1295,0.291
3.777,0.0351,-0.4329,0.4943,0.658
3.782,0.1503,-0.5743,0.8482,1.035
3.792,0.4693,-0.7898,1.0011,1.359
3.793,0.5637,-0.8629,1.0568,1.476
3.796,0.1371,-0.6189,0.9359,1.13
3.801,-0.2324,-0.334,0.85,0.942
3.806,-0.4897,-0.0902,0.8709,1.003
3.811,-0.9986,0.2455,0.8191,1.315
3.817,-1.5411,0.5714,0.7733,1.816
3.821,-1.8978,0.7952,0.8194,2.215
3.829,-2.0783,0.9066,0.8874,2.435
3.831,-1.937,0.9194,1.0752,2.399
3.835,-1.7079,0.9152,1.3926,2.386
3.841,-1.6742,0.8733,1.5307,2.431
3.845,-1.6507,0.6263,1.5335,2.339
3.849,-1.5057,0.1291,1.6463,2.235
3.854,-1.4067,-0.3719,1.8858,2.382
3.864,-1.4327,-0.7148,2.2662,2.775
3.865,-1.1891,-0.9984,2.6216,3.047
3.872,-0.7737,-1.0499,2.8915,3.172
3.874,-0.4326,-0.9818,2.9672,3.155
3.878,-0.2157,-0.9174,2.8201,2.973
3.884,0.0802,-0.9566,2.4743,2.654
3.889,0.4047,-1.1579,2.1191,2.448
3.894,0.4995,-1.6579,1.8305,2.52
3.898,0.5336,-1.8782,1.7938,2.651
3.903,0.8022,-1.9823,1.7165,2.742
3.908,0.6869,-1.6461,1.3459,2.234
3.913,0.659,-1.4519,0.687,1.736
3.917,0.958,-1.4753,0.5103,1.832
3.922,1.521,-1.2551,0.3085,1.996
3.927,1.406,-0.7213,0.2405,1.598
3.932,1.0885,-0.2545,-0.2245,1.14
3.945,0.7998,0.1076,-0.8185,1.149
3.945,0.3215,0.2569,-1.4613,1.518
3.947,-1.1293,0.5944,-1.8946,2.284
3.952,-2.9357,1.0756,-1.9162,3.667
3.956,-4.006,1.5872,-0.7861,4.38
3.961,-3.514,2.1359,0.4556,4.137
3.966,-2.3207,2.2052,1.0588,3.372
3.971,-1.3241,1.3532,0.8496,2.075
3.976,-0.0011,0.3137,0.3616,0.479
3.981,0.1445,-0.4413,-0.3081,0.557
3.985,-0.6478,0.0185,-0.615,0.893
3.99,-1.7056,0.2623,-1.0406,2.015
3.995,-2.1955,0.0466,-1.4734,2.644
4,-2.1392,-0.5515,-1.8844,2.904
4.005,-1.7396,-1.1328,-2.2022,3.026
4.01,-1.3279,-1.4209,-2.1504,2.899
4.014,-1.2941,-1.4285,-1.7987,2.636
4.019,-1.034,-1.064,-0.711,1.645
4.024,-0.9886,-0.7375,0.2679,1.262
4.029,-0.954,-0.6655,1.0426,1.562
4.034,-0.5895,-0.9439,1.5499,1.908
4.038,1.0815,-1.0639,2.8668,3.244
4.043,2.043,-1.1102,3.3595,4.086
4.048,3.3305,-0.8641,3.7369,5.08
4.055,3.0303,-0.8352,2.5298,4.035
4.058,3.856,-0.3572,2.2027,4.455
4.063,4.5323,-0.2359,2.4195,5.143
4.067,3.5036,-0.1559,1.6519,3.877
4.072,2.6289,-0.1878,1.1079,2.859
4.077,1.9484,-0.3521,0.8255,2.145
4.082,1.9622,-0.646,0.3992,2.104
4.087,2.1687,-0.8028,-0.1824,2.32
4.092,1.9562,-0.5739,-0.589,2.122
4.097,1.9168,-0.0199,-0.8892,2.113
4.102,1.9273,0.3322,-1.2933,2.345
4.107,1.8926,0.3359,-1.5395,2.463
4.111,1.9116,0.3296,-1.6035,2.517
4.117,1.7409,0.5548,-1.3849,2.293
4.122,1.4575,0.7363,-1.1317,1.987
4.126,1.36,0.8285,-0.5797,1.695
4.134,1.4994,0.9391,0.2488,1.787
4.136,1.5667,1.1403,0.9686,2.166
4.146,1.3785,1.3532,1.3293,2.345
4.146,1.1997,1.5418,1.2962,2.345
4.151,1.1081,1.6313,1.2721,2.347
4.155,1.0091,1.7004,1.3424,2.39
4.161,0.7965,1.7798,1.4647,2.439
4.165,0.5744,1.8691,1.6278,2.544
4.17,0.4251,1.9539,1.6793,2.611
4.175,0.2081,2.0382,1.5924,2.595
4.18,-0.0269,2.0502,1.4674,2.521
4.184,-0.0581,1.8798,1.3206,2.298
4.188,0.0835,1.68,1.1636,2.045
4.193,0.1926,1.5105,0.9241,1.781
4.199,0.3794,1.3401,0.4655,1.468
4.204,0.618,1.2164,-0.0955,1.368
4.208,1.0308,1.0986,-0.5328,1.598
4.213,1.4901,1.0129,-0.6349,1.91
4.218,1.6077,0.9784,-0.2738,1.902
4.222,1.4258,0.9017,0.17,1.696
4.227,1.1781,0.5514,0.2648,1.327
4.233,0.8559,0.0926,-0.2028,0.884
4.237,0.2856,-0.2093,-0.9597,1.023
4.242,-0.3768,-0.1683,-1.5002,1.556
4.247,-0.7206,0.0519,-1.9903,2.117
4.251,-0.8945,0.3307,-2.3959,2.579
4.257,-1.0369,0.5095,-2.7613,2.993
4.261,-1.0297,0.5666,-3.1024,3.318
4.266,-1.111,0.6215,-3.374,3.606
4.271,-1.121,0.5715,-3.47,3.691
4.276,-0.8467,0.3907,-3.4544,3.578
4.281,-0.3349,0.2253,-3.263,3.288
4.286,0.297,0.1329,-2.9671,2.985
4.291,0.6853,0.0734,-2.5223,2.615
4.295,0.789,-0.0772,-2.1682,2.309
4.3,0.7407,-0.33,-1.7964,1.971
4.305,0.7198,-0.5318,-1.371,1.637
4.31,0.7053,-0.51,-0.8033,1.184
4.315,0.7575,-0.2864,-0.3999,0.903
4.32,0.7286,0.0003,-0.3099,0.792
4.325,0.5993,0.2137,-0.5144,0.818
4.329,0.4989,0.3488,-0.8057,1.01
4.334,0.4125,0.506,-1.4267,1.569
4.339,0.0921,0.5415,-1.7446,1.829
4.343,0.0204,0.4028,-1.7178,1.764
4.349,-0.0396,0.2669,-1.7249,1.746
4.353,-0.2794,0.1338,-1.541,1.572
4.358,-0.4573,0.068,-1.2687,1.35
4.363,-0.4916,0.0839,-1.0541,1.166
4.368,-0.4827,0.1024,-0.9069,1.032
4.373,-0.4878,0.0852,-0.5979,0.776
4.378,-0.5801,0.0874,-0.3289,0.673
4.382,-0.8841,0.1542,-0.2297,0.926
4.387,-1.3579,0.185,-0.2311,1.39
4.392,-1.7787,0.1726,-0.1374,1.792
4.397,-2.0236,0.1385,0.0197,2.028
4.402,-2.1424,0.1519,-0.0233,2.148
4.406,-2.3258,0.0884,-0.4278,2.366
4.412,-2.6424,0.1317,-1.1673,2.892
4.416,-2.7582,0.2982,-2.0802,3.468
4.421,-2.3587,0.6401,-3.423,4.206
4.426,-1.6372,0.9445,-4.4643,4.848
4.431,-1.1777,1.0419,-4.4657,4.734
4.436,-0.982,0.9184,-3.8954,4.121
4.441,-1.0818,0.618,-3.086,3.328
4.446,-1.3577,0.132,-2.1893,2.579
4.45,-1.5279,-0.3405,-1.4852,2.158
4.455,-0.9253,-0.5767,-0.9961,1.477
4.46,0.2406,-0.8825,-2.859,3.002
4.465,1.7745,-0.6271,0.2603,1.9
4.469,3.5881,0.2764,2.6302,4.457
4.475,3.0983,0.7611,1.3113,3.449
4.479,1.8297,0.5696,-2.0249,2.788
4.484,0.8379,0.0517,-4.8313,4.904
4.489,0.0062,-0.212,-5.2313,5.236
4.494,-1.6091,0.5021,-3.9224,4.269
4.499,-2.4684,1.3682,-1.6892,3.289
4.504,-3.8303,2.023,-0.0362,4.332
4.509,-5.1842,1.9411,-0.1443,5.538
4.513,-5.4906,1.3285,-0.3135,5.658
4.518,-5.1872,0.7474,-0.1021,5.242
4.523,-4.9449,0.764,0.6104,5.041
4.528,-4.5089,0.9262,1.2731,4.776
4.533,-4.6029,0.8158,0.882,4.757
4.537,-4.2063,0.383,0.6298,4.27
4.542,-3.8313,-0.1661,0.6238,3.885
4.547,-3.4078,-0.6738,1.004,3.616
4.552,-3.0637,-1.0565,1.2393,3.47
4.557,-2.5973,-1.3023,1.335,3.197
4.562,-2.0943,-1.5883,1.4795,3.016
4.567,-1.5234,-1.8021,1.7226,2.922
4.572,-1.0994,-1.8913,1.6317,2.729
4.577,-0.7246,-1.942,1.3334,2.465
4.582,-0.3995,-1.9041,1.3674,2.378
4.586,-0.2424,-1.8591,1.5354,2.423
4.592,0.3242,-1.4484,1.1804,1.896
4.597,4.546,-0.4335,1.4117,4.78
4.601,3.4136,-0.1603,2.4775,4.221
4.607,1.8661,-0.5177,1.7965,2.642
4.611,-1.13,-1.2902,1.8638,2.533
4.617,-2.2407,-1.9737,2.26,3.745
4.622,-3.742,-1.6723,2.4576,4.779
4.627,-3.5905,-0.7981,2.3911,4.387
4.631,-2.384,-0.5536,1.8561,3.072
4.637,-1.2261,-0.5985,1.6311,2.127
4.641,-0.3341,-0.777,1.7178,1.915
4.645,0.2484,-0.9816,1.5714,1.869
4.651,0.8588,-1.1288,1.4324,2.016
4.655,1.6955,-1.2973,1.4755,2.595
4.661,2.6036,-1.3746,1.8407,3.472
4.665,3.042,-1.5205,2.0497,3.971
4.67,2.9657,-1.4599,2.136,3.936
4.675,3.4324,-1.365,2.3633,4.385
4.681,3.6146,-1.4031,1.9468,4.339
18.445,3.5539,-1.3945,1.9823,4.302
18.446,3.308,-1.5076,1.8051,4.059
18.446,2.6603,-1.4988,1.4353,3.374
18.447,3.6176,-1.5065,1.3888,4.158
18.447,4.1997,-0.7011,1.9334,4.676
18.448,4.0155,1.1283,2.7473,4.995
18.448,3.7446,3.3306,-0.9073,5.093
18.448,3.8236,6.3725,-8.1288,11.014
18.449,1.7305,8.6946,-4.8905,10.125
18.449,-1.6772,8.1393,-0.5086,8.326
18.45,-0.6179,4.1024,-1.0546,4.281
18.45,2.0046,-0.5289,-0.1352,2.078
18.45,0.8596,-2.173,1.2299,2.641
18.451,-2.5993,-1.6408,1.9993,3.667
18.451,-4.5903,-1.1175,1.7884,5.052
18.451,-4.6335,-1.4386,0.9161,4.937
18.452,-3.7654,-1.7482,0.3715,4.168
18.452,-2.689,-1.9529,0.9379,3.453
18.453,-1.7774,-1.9566,1.713,3.15
18.453,-0.6061,-1.7711,1.851,2.633
18.454,0.3898,-1.2867,1.1445,1.766
18.454,0.5504,-0.6857,0.427,0.977
18.454,0.6993,-0.3891,0.388,0.889
18.455,0.8674,-0.48,0.7954,1.271
18.455,0.6955,-0.6211,1.4077,1.689
18.455,0.1296,-0.7548,1.9434,2.089
18.456,-0.4318,-0.8574,2.0963,2.306
18.456,-0.6597,-0.9191,2.0704,2.359
18.456,-0.6413,-0.8277,1.8395,2.117
18.457,-0.4703,-0.5617,1.5765,1.738
18.457,-0.1488,-0.3199,1.1834,1.235
18.457,0.2041,-0.1858,0.6479,0.704
18.46,0.6083,-0.1307,0.3868,0.733
18.461,3.1342,-0.6345,1.2911,3.449
18.461,1.164,-0.2535,-0.5537,1.314
18.461,-0.5978,-0.1074,-0.9684,1.143
18.461,-0.4983,0.0073,0.0934,0.507
18.462,-0.8293,-0.1196,-0.2069,0.863
18.462,-0.467,-0.5118,-0.2283,0.729
18.462,-0.1416,-0.937,-0.325,1.002
18.463,-0.0037,-1.3165,-0.5591,1.43
18.465,0.0854,-1.5403,-0.4352,1.603
18.465,0.1927,-1.68,0.1191,1.695
18.466,0.0979,-1.726,0.5289,1.808
18.467,0.0329,-1.6901,0.6926,1.827
18.467,0.0426,-1.5296,0.6602,1.667
18.468,0.0983,-1.2638,0.3931,1.327
18.468,0.43,-0.9096,0.3018,1.05
18.468,0.6142,-0.3506,-0.5356,0.887
18.469,0.7684,0.303,-0.9387,1.25
18.469,0.7092,1.1058,-0.6878,1.483
18.469,0.4924,1.7975,-0.3971,1.906
18.47,0.1571,1.9818,0.0546,1.989
18.47,0.157,1.903,0.1379,1.914
18.47,0.7941,1.8386,-0.5477,2.076
18.471,1.6354,1.6432,0.8924,2.484
18.471,1.6452,0.8457,-0.5464,1.929
18.471,0.6278,0.5072,-3.4477,3.541
18.472,0.4979,0.802,-0.9232,1.32
18.472,1.0329,0.1181,4.7098,4.823
18.472,1.5392,-0.4852,3.7286,4.063
18.473,0.2847,-0.1156,-2.7621,2.779
18.474,-0.6577,0.3682,-1.244,1.455
18.475,-0.4638,1.0569,0.1417,1.163
18.475,-1.4834,1.0849,-0.4447,1.891
18.475,-1.9933,1.0172,-1.0913,2.49
18.476,-1.5901,0.9615,-1.2301,2.228
18.476,-1.035,0.6674,-0.7335,1.433
18.476,-0.5096,0.2854,-0.3647,0.689
18.476,-0.1163,-0.1197,-0.1573,0.229
18.477,0.1887,-0.517,-0.1811,0.579
18.477,0.2069,-0.8397,-0.0159,0.865
18.477,0.0016,-1.4035,0.2984,1.435
18.477,-0.9912,-1.503,0.0432,1.801
18.477,-1.0118,-1.4877,0.8413,1.986
18.478,-1.1253,-1.2723,0.8882,1.917
18.478,-0.8567,-1.1937,0.7995,1.673
18.478,-1.2459,-0.1617,1.2585,1.778
18.479,-1.5586,0.8144,0.554,1.844
18.479,-1.4528,1.1513,-0.1066,1.857
18.479,-1.1782,1.0789,-0.4185,1.651
18.479,-1.0653,0.8201,-0.6306,1.485
18.48,-0.5992,0.3846,-0.4033,0.818
18.48,-0.4659,0.2672,-0.6813,0.868
18.48,-0.549,0.1546,-0.5913,0.822
18.48,-0.4502,-0.0941,-0.2794,0.538
18.48,-0.2993,-0.3305,-0.035,0.447
18.481,0.1807,-0.636,0.1963,0.69
18.481,0.1664,-0.6335,-0.9573,1.16
18.481,-2.1399,0.5903,-0.3317,2.245
18.481,-2.2296,1.5059,2.0904,3.407
18.482,0.7745,-0.0363,1.6953,1.864
18.482,0.2789,-1.5734,-1.528,2.211
18.482,0.8384,-1.6852,-0.7223,2.016
18.482,0.6896,-1.9041,-0.451,2.075
18.482,-1.573,-2.0376,-0.1855,2.581
18.483,-2.9682,-1.5848,-1.0882,3.536
18.483,-1.4367,-2.0628,-0.4412,2.552
18.483,-2.7429,-2.1535,-0.0072,3.487
18.484,-3.7246,-0.9916,2.7149,4.715
18.484,-2.2336,0.0157,1.933,2.954
18.484,-1.2663,1.877,1.5098,2.721
18.484,-0.9067,2.942,0.1297,3.081
18.485,-0.1488,2.6144,-1.2179,2.888
18.485,0.6284,1.6157,-1.2948,2.164
18.485,0.182,0.2455,-1.8921,1.917
18.485,-0.0197,-0.8242,-1.6351,1.831
18.486,-0.0275,-1.1397,-0.6394,1.307
18.486,0.0147,-0.991,0.1763,1.007
18.486,-0.0142,-0.845,0.4741,0.969
18.486,0.0348,-0.8787,0.4167,0.973
18.486,0.0206,-0.9483,0.2005,0.97
18.487,-0.0882,-0.9176,-0.0065,0.922
18.487,-0.307,-0.6622,0.0306,0.731
18.487,-0.5919,-0.3521,0.1782,0.711
18.487,-0.8747,-0.0972,0.3069,0.932
18.488,-0.9257,-0.0146,0.4139,1.014
18.488,-0.8185,-0.0373,0.5969,1.014
18.488,-0.7077,-0.0218,0.6836,0.984
18.488,-0.6552,0.0844,0.6167,0.904
18.488,-0.8336,0.1831,0.2478,0.889
18.489,-0.8864,-0.0291,0.0094,0.887
18.489,-0.9257,-0.179,0.007,0.943
18.489,-1.0017,-0.2834,0.0521,1.042
18.489,-1.0571,-0.304,0.0633,1.102
18.49,-0.9407,-0.2026,0.1136,0.969
18.49,-0.937,0.1737,0.1101,0.959
18.49,-0.8136,0.4327,-0.0809,0.925
18.49,-0.4758,0.1178,-0.0443,0.492
18.49,-0.3626,-0.3977,0.4183,0.682
18.491,-0.5342,-0.9942,0.4163,1.203
18.491,-1.0051,-1.5258,0.1725,1.835
18.491,-1.682,-1.8395,-0.0106,2.493
18.492,-2.0669,-2.0141,-0.1364,2.889
18.492,-1.95,-2.0592,-0.1487,2.84
18.492,-1.5511,-2.03,-0.1888,2.562
18.493,-1.0032,-1.9767,-0.3048,2.238
18.493,-0.5298,-1.8254,-0.2676,1.92
18.493,-0.1467,-1.5596,-0.1328,1.572
18.493,0.1544,-1.2534,0.0253,1.263
18.494,0.3675,-0.9713,0.1836,1.055
18.494,0.5093,-0.7015,0.2368,0.899
18.494,0.7424,-0.5418,0.3505,0.984
18.494,0.7509,-0.621,0.4513,1.074
18.494,0.8284,-0.4873,0.1842,0.979
18.495,0.7901,-0.2294,0.442,0.934
18.495,0.3533,0.1049,0.6791,0.773
18.495,-0.0803,0.4054,0.6939,0.808
18.495,-0.4342,0.5812,0.498,0.88
18.495,-0.8053,0.654,0.1433,1.047
18.496,-1.0663,0.6718,-0.0808,1.263
18.496,-1.9266,0.1829,-0.0904,1.937
18.496,-1.8149,0.189,0.5175,1.897
18.496,-1.781,1.7237,0.8189,2.61
18.497,-1.4709,3.3443,-0.5845,3.7
18.497,-1.6889,4.128,0.2534,4.467
18.497,-1.16,3.9116,-1.1661,4.243
18.497,-0.4807,2.4051,-1.8423,3.068
18.498,-0.4087,0.9437,-0.0166,1.029
18.498,-0.5436,0.297,0.6407,0.891
18.498,-0.8603,0.1175,1.0261,1.344
18.498,-0.9733,0.0053,1.048,1.43
18.498,-0.6831,-0.133,0.733,1.011
18.499,-0.2317,-0.0824,0.0859,0.26
18.499,0.1399,0.0183,0.0222,0.143
18.499,0.4498,0.0279,0.2699,0.525
18.499,0.5836,0.2741,0.224,0.683
18.499,0.4669,0.4291,0.2622,0.686
18.499,0.1735,0.4334,0.1401,0.487
18.5,-0.293,0.4952,-0.272,0.636
18.5,-0.869,0.5712,-0.5557,1.179
18.5,-1.3898,0.5972,-0.5552,1.611
18.5,-1.7524,0.566,-0.4426,1.894
18.5,-1.8446,0.43,-0.4478,1.946
18.501,-1.8008,0.2012,-0.5755,1.901
18.501,-1.5568,0.016,-0.3977,1.607
18.501,-1.2809,-0.1113,-0.1363,1.293
18.501,-0.9308,-0.1232,0.0964,0.944
18.502,-0.6862,-0.1898,0.2574,0.757
18.502,-0.4899,-0.4017,0.3778,0.738
18.502,-0.408,-0.5269,0.3927,0.773
18.502,-0.3785,-0.5918,0.4196,0.818
18.502,-0.2438,-0.5894,0.5133,0.819
18.503,-0.0902,-0.5268,0.5782,0.787
18.503,0.1702,-0.4855,0.3587,0.627
18.503,0.315,-0.3843,0.2374,0.551
18.503,0.3067,-0.1657,0.1709,0.388
18.503,0.3418,-0.2385,0.3245,0.528
18.503,0.6617,-0.588,0.6248,1.084
18.504,0.615,-0.5377,0.1999,0.841
18.504,0.5705,-0.4682,0.1955,0.763
18.504,0.524,-0.265,0.2622,0.643
18.504,0.521,-0.1579,0.3037,0.623
18.504,0.8623,-0.3236,0.2332,0.95
18.504,1.1749,-0.5778,0.0022,1.309
18.505,1.2387,-0.5884,-0.1438,1.379
18.505,1.2146,-0.5067,-0.2551,1.341
18.505,1.3103,-0.3088,-0.4,1.404
18.505,1.5272,-0.0402,-0.36,1.57
18.505,1.7933,0.2414,-0.3428,1.842
18.506,2.0763,0.3855,-0.3588,2.142
18.506,2.065,0.3138,-0.605,2.175
18.506,1.7183,0.2585,-0.8789,1.947
18.506,1.339,0.2988,-0.9083,1.645
18.506,0.9205,0.3416,-0.69,1.2
18.506,0.3875,0.3032,-0.3737,0.618
18.507,-0.1403,0.3341,-0.2342,0.431
18.507,-0.6721,0.6231,-0.2742,0.957
18.507,-0.9946,0.8785,-0.4186,1.391
18.507,-1.1034,0.8229,-0.4663,1.453
18.507,-1.2139,0.7484,-0.4417,1.493
18.508,-1.3207,0.6216,-0.247,1.48
18.508,-1.4878,0.617,0.1124,1.615
18.508,-1.7022,0.6127,0.3616,1.845
18.508,-1.8346,0.6469,0.3806,1.982
18.508,-1.8757,0.6144,0.301,1.997
18.509,-1.6953,0.5845,0.0884,1.795
18.509,-1.499,0.4685,-0.1623,1.579
18.509,-1.4032,0.3382,-0.248,1.465
18.509,-1.3572,0.3009,-0.2834,1.419
18.509,-1.1757,0.8457,-0.5385,1.545
18.51,-0.4352,2.2917,-1.0684,2.566
18.51,0.9733,1.7942,-0.271,2.059
18.51,1.874,-0.8889,1.1682,2.38
18.51,1.7373,-2.0787,1.1114,2.928
18.51,0.8157,-1.6123,0.4736,1.868
18.511,-0.0744,-0.7564,0.0266,0.76
18.511,-0.5155,-0.0493,-0.439,0.679
18.511,-0.8061,-0.2342,-0.6059,1.035
18.511,-1.0111,-0.4904,-0.5798,1.264
18.511,-0.946,-0.4117,-0.5467,1.168
18.511,-0.6096,-0.6653,-0.2954,0.949
18.512,-0.2319,-0.8971,-0.1461,0.938
18.512,-0.198,-1.4197,0.0612,1.435
18.512,-3.9706,-4.1825,2.1306,6.148
18.513,-3.1874,0.4355,0.1283,3.22
18.513,-1.9447,0.4497,-0.7131,2.12
18.513,-1.2254,0.2819,-0.6299,1.406
18.513,-0.4264,-0.4524,-0.7136,0.946
18.514,0.4829,-2.0101,-0.4158,2.109
18.514,0.16,-1.6086,0.165,1.625
18.514,0.1758,0.2164,-0.1435,0.314
18.514,1.5069,2.5117,-1.1822,3.159
18.514,3.1567,-1.0221,-1.0063,3.467
18.515,2.9487,-2.723,0.2033,4.019
18.515,3.4622,-0.7582,-0.2056,3.55
18.515,4.4369,-0.2272,-0.7802,4.511
18.515,1.8985,-5.4606,0.7234,5.826
18.516,0.0704,-2.2438,0.9098,2.422
18.516,-1.7171,1.0954,0.1463,2.042
18.516,-2.6547,0.9077,-0.7596,2.907
18.516,-3.3047,0.5073,-0.7698,3.431
18.516,-3.0652,0.1336,-0.3963,3.094
18.516,-3.3331,-0.242,-0.2021,3.348
18.517,-2.6088,0.8692,0.5587,2.806
18.517,-1.0604,2.8465,-0.1171,3.04
18.517,-0.7866,-0.9191,-0.0385,1.21
18.517,0.1676,1.3879,0.0584,1.399
18.517,0.8456,1.933,-0.2091,2.12
18.517,1.5105,-1.1501,-0.0512,1.899
18.518,1.8672,1.4203,-0.8364,2.491
18.518,0.6086,2.14,0.2725,2.242
18.518,0.081,0.1513,0.1363,0.219
18.518,1.0506,1.9147,-0.5985,2.265
18.518,1.1637,0.0243,-0.6135,1.316
18.518,-0.363,0.6958,0.9295,1.216
18.518,3.0936,3.8444,-2.1731,5.392
18.518,1.0742,-1.3228,0.7772,1.873
18.519,0.4965,-3.6367,2.3936,4.382
18.519,2.1363,-0.8238,1.1308,2.554
18.519,0.0465,-0.8701,-0.7934,1.178
18.519,-3.5843,0.9453,-0.1104,3.708
18.519,-0.0622,2.1035,-0.9687,2.317
18.519,-3.0882,-0.5565,-0.4069,3.164
18.52,3.5829,1.8911,-2.6002,4.814
18.52,2.0677,-0.0475,-0.5639,2.144
18.52,4.1422,-0.4546,1.0596,4.3
18.52,12.2934,2.4725,-1.2407,12.601
18.521,-0.8995,-5.7276,4.7491,7.495
18.521,3.887,-1.8625,2.3453,4.907
18.521,4.8693,0.5382,0.8039,4.964
18.521,0.4117,-0.5341,0.7514,1.01
18.521,-1.7544,-0.3362,-0.0518,1.787
18.522,-3.3954,0.2174,-0.5647,3.449
18.522,-4.0263,0.4596,-0.6923,4.111
18.522,-4.4716,0.7542,-0.3583,4.549
18.522,-4.6807,0.9793,0.0738,4.783
18.522,-5.0717,0.884,0.6762,5.192
18.523,-5.0957,0.8606,1.1003,5.284
18.523,-4.8402,0.8227,1.0864,5.028
18.523,-4.3716,0.6988,0.9078,4.519
18.523,-3.7588,0.4817,0.5716,3.832
18.523,-3.0644,0.3101,0.1494,3.084
18.523,-2.578,0.2007,-0.0889,2.587
18.524,-2.3933,0.1247,-0.134,2.4
18.524,-2.2023,0.0153,-0.1552,2.208
18.524,-1.8648,-0.0486,-0.1402,1.871
18.524,-1.3341,-0.1053,-0.1288,1.344
18.524,-0.8972,-0.2695,-0.1212,0.945
18.524,-0.6754,-0.5435,-0.1965,0.889
18.525,-0.3746,-0.7956,-0.2805,0.923
18.525,0.0154,-1.1001,-0.2202,1.122
18.525,0.6585,-1.1893,-0.0373,1.36
18.525,1.0127,-1.0635,-0.0092,1.469
18.525,0.7874,-1.2678,-0.1169,1.497
18.525,0.3738,-1.5341,-0.0923,1.582
18.525,0.716,-1.5658,0.0715,1.723
18.526,0.6561,-1.5735,-0.0206,1.705
18.526,0.6627,-1.543,0.0644,1.681
18.526,0.3384,-1.4837,0.0758,1.524
18.526,0.7716,-1.1091,0.2502,1.374
18.526,0.581,-0.6322,0.1327,0.869
18.526,1.0705,0.1785,0.4169,1.163
18.526,0.6606,1.0478,0.2452,1.263
18.527,-0.1919,0.5728,-0.0087,0.604
18.527,0.2025,1.1547,0.3511,1.224
18.527,-1.3497,0.2663,-0.0332,1.376
18.527,-0.6194,0.1224,0.5373,0.829
18.527,-1.2095,0.2129,0.6125,1.372
18.527,-1.5246,0.6857,0.5772,1.769
18.527,-1.5383,1.048,0.4079,1.906
18.528,-1.5117,1.1996,0.3292,1.958
18.528,-0.978,1.3152,0.2599,1.659
18.528,-0.1801,1.2015,0.1288,1.222
18.528,0.3504,0.99,0.1843,1.066
18.528,0.387,0.4034,0.0021,0.559
18.528,-0.1348,-0.1061,-0.0191,0.173
18.528,-0.4093,-0.1396,0.2863,0.519
18.529,-0.4815,-0.0058,0.4479,0.658
18.529,-0.3845,0.1398,0.4283,0.592
18.529,-0.1033,0.1061,0.3355,0.367
18.529,0.2991,-0.1138,0.313,0.448
18.529,0.7131,-0.3883,0.3415,0.881
18.529,1.0035,-0.6384,0.2988,1.226
18.53,1.1664,-0.7234,0.2708,1.399
18.53,1.258,-0.7078,0.2216,1.46
18.53,1.3192,-0.6971,0.218,1.508
18.53,1.3075,-0.7056,0.2432,1.506
18.53,1.2206,-0.7095,0.3379,1.452
18.53,1.0878,-0.625,0.466,1.338
18.53,0.9023,-0.4834,0.589,1.181
18.53,0.6663,-0.3134,0.6375,0.974
18.531,0.3317,-0.158,0.6138,0.715
18.531,-0.0334,0.0041,0.5611,0.562
18.531,0.3167,1.0478,0.588,1.243
18.531,-1.6186,0.7423,-0.3045,1.807
18.531,-1.6018,0.6594,0.0871,1.734
18.531,-2.1384,-0.5821,-0.2294,2.228
18.532,-2.0013,-0.9352,0.2922,2.228
18.532,-1.6708,-0.5709,0.7307,1.911
18.532,-1.2103,-0.0133,0.8348,1.47
18.532,-0.8382,0.2639,0.6492,1.093
18.532,-0.5153,0.2372,0.4869,0.748
18.532,-0.4871,0.0049,0.4384,0.655
18.532,-0.7248,-0.2225,0.3293,0.827
18.532,-0.9231,-0.2776,0.2799,1.004
18.533,-0.837,-0.2728,0.2069,0.904
18.533,-0.5463,-0.3922,0.1489,0.689
18.533,-0.0212,-0.1889,0.1272,0.229
18.533,0.3364,-0.0911,0.0288,0.35
18.533,-0.6588,-0.9778,-0.0888,1.182
18.533,-0.532,-1.1727,0.344,1.333
18.533,-0.6061,-1.0325,0.2461,1.222
18.534,-0.3419,-0.8137,0.1797,0.901
18.534,0.1159,-0.5736,0.2501,0.636
18.534,0.3758,-0.451,0.1912,0.617
18.534,0.5789,-0.3166,0.1301,0.673
18.534,0.6988,-0.2088,0.0832,0.734
18.534,0.7764,-0.058,0.0243,0.779
18.534,0.8149,0.1569,-0.1116,0.837
18.535,0.6474,0.2759,-0.2147,0.736
18.535,0.1038,-0.002,-0.1133,0.154
18.535,-0.3164,0.0932,0.0229,0.331
18.535,-0.6573,0.248,-0.0353,0.703
18.535,-0.7978,0.429,0.0019,0.906
18.535,-0.4329,0.6863,0.2184,0.84
18.535,-0.057,0.6708,0.2177,0.708
18.535,-0.7211,0.6817,0.2599,1.026
18.536,-1.2988,0.7309,0.3157,1.523
18.536,-1.695,0.6461,0.2777,1.835
18.536,-1.2945,0.5115,0.3809,1.443
18.536,-0.103,0.236,0.3726,0.453
18.536,0.8172,-0.1825,0.2816,0.883
18.536,1.1594,-0.4045,0.3202,1.269
18.536,1.4507,-0.44,0.4091,1.57
18.537,1.6371,-0.5784,0.309,1.764
18.537,1.279,-0.5423,0.1491,1.397
18.537,1.0478,-0.4489,0.0969,1.144
18.537,1.099,-0.5207,0.0017,1.216
18.537,1.3563,-0.6977,-0.0598,1.526
18.537,1.2505,-0.7812,-0.1357,1.481
18.537,0.1356,-0.7166,-0.2242,0.763
18.538,-0.5999,-0.7428,-0.0862,0.959
18.538,-0.8086,-0.7952,0.0588,1.136
18.538,-0.9794,-0.8141,0.1204,1.279
18.538,-0.9528,-0.7372,0.1444,1.213
18.538,-1.0039,-0.646,0.1645,1.205
18.538,-1.7494,-0.3971,0.1468,1.8
18.538,-2.0948,-0.2369,0.1748,2.115
18.539,-1.8347,-0.3516,0.1504,1.874
18.539,-1.3541,-0.3539,0.1431,1.407
18.539,-1.3171,-0.1983,0.098,1.336
18.539,-1.2385,0.0479,0.0579,1.241
18.539,-1.0799,0.246,-0.1492,1.118
18.539,-0.981,0.3794,0.0577,1.053
18.54,-1.2054,0.4912,0.1926,1.316
18.54,-0.7966,0.3686,-0.0292,0.878
18.54,0.1869,0.2272,-0.1985,0.355
18.54,0.4475,0.3631,-0.3009,0.65
18.54,0.2584,0.6136,-0.1931,0.693
18.54,0.1764,0.7467,-0.1121,0.775
18.54,0.151,0.7481,-0.0769,0.767
18.54,0.2492,0.7496,-0.0183,0.79
18.541,0.5723,0.7774,-0.0436,0.966
18.541,0.9248,0.7359,-0.0738,1.184
18.541,1.1066,0.6656,-0.0278,1.292
18.541,0.9218,0.562,0.1016,1.084
18.541,0.5854,0.4824,0.2999,0.816
18.541,0.3955,0.4555,0.4577,0.757
18.541,0.3488,0.4071,0.4437,0.696
18.541,0.2962,0.3516,0.2535,0.525
18.542,0.0986,0.3344,0.0588,0.354
18.542,-0.2463,0.2814,-0.0952,0.386
18.542,-0.4948,0.262,-0.0872,0.567
18.542,-0.5728,0.2212,0.0013,0.614
18.542,-0.4419,0.037,0.216,0.493
18.542,-0.5267,-0.1923,0.4134,0.697
18.542,-1.156,-0.4524,0.5457,1.356
18.542,-1.4808,-0.2652,0.7371,1.675
18.543,-1.8862,-0.4439,0.6077,2.031
18.543,-2.1176,-0.5243,0.7745,2.315
18.543,-2.0926,-0.5616,1.0363,2.402
18.543,-2.2071,-0.6203,1.1259,2.554
18.543,-2.0744,-0.5762,1.0794,2.408
18.544,-1.6381,-0.5729,0.9116,1.96
18.544,-1.2476,-0.6412,0.7776,1.604
18.544,-0.9597,-0.6234,0.6992,1.341
18.544,-0.6074,-0.5531,0.7521,1.114
18.544,-0.2551,-0.502,0.7977,0.976
18.544,-0.1345,-0.4891,0.7808,0.931
18.545,-0.4594,-0.4309,0.734,0.967
18.545,-0.6577,-0.2484,0.8158,1.077
18.545,-0.5817,-0.121,0.8376,1.027
18.545,-0.6119,-0.0894,0.7282,0.955
18.545,-0.6711,-0.0554,0.6361,0.926
18.546,-0.6668,-0.0573,0.5462,0.864
18.546,-0.6189,-0.1283,0.4609,0.782
18.546,-0.2165,-0.1801,0.2848,0.401
18.547,0.2336,-0.4299,0.0853,0.497
18.547,0.2913,-0.6506,0.3069,0.776
18.547,0.5412,-0.6679,0.5718,1.032
18.547,-0.1141,-0.769,0.7526,1.082
18.548,-0.5393,-0.6097,0.7704,1.121
18.548,-1.8746,-0.5227,0.4908,2.007
18.548,-3.9219,-0.1753,0.3201,3.939
18.548,-3.9261,0.3654,0.1467,3.946
18.548,-3.4689,0.3511,-0.0763,3.487
18.549,-3.1502,0.1841,-0.1001,3.157
18.549,-2.5724,0.0509,-0.04,2.573
18.549,-1.9592,-0.0677,-0.0613,1.961
18.549,-1.2692,-0.1956,-0.0468,1.285
18.549,-0.5778,-0.2612,-0.0466,0.636
18.55,-0.1739,-0.3386,-0.0797,0.389
18.55,0.0846,-0.3156,-0.1221,0.349
18.55,0.2996,-0.221,-0.1758,0.412
18.55,0.6091,-0.1099,-0.2461,0.666
18.55,1.0418,-0.0348,-0.2733,1.078
18.55,1.2486,0.0138,-0.2771,1.279
18.551,1.2146,0.0266,-0.215,1.234
18.551,1.0095,0.0751,-0.0702,1.015
18.551,0.6854,0.1428,-0.0788,0.704
18.551,0.6008,0.1601,-0.0159,0.622
18.551,0.4764,0.2348,0.0829,0.538
18.552,0.5201,0.3117,0.1385,0.622
18.552,0.4305,0.4149,0.2083,0.633
18.552,0.4303,0.4867,0.1703,0.672
18.552,0.8001,0.3577,0.3379,0.939
18.552,0.9834,0.1569,0.4838,1.107
18.552,0.9063,0.004,0.5294,1.05
18.553,0.8195,-0.0151,0.4868,0.953
18.553,0.7821,0.0471,0.3899,0.875
18.553,0.7846,0.0732,0.2436,0.825
18.553,0.9463,0.1445,0.1363,0.967
18.553,1.1402,0.2539,-0.0231,1.168
18.553,1.2321,0.3201,-0.1726,1.285
18.554,1.2553,0.2954,-0.2504,1.314
18.554,1.0349,0.2277,-0.2399,1.086
18.554,0.8044,0.2128,-0.1026,0.838
18.554,0.6876,-0.0699,0.0372,0.692
18.554,1.1535,-0.2854,0.2278,1.21
18.554,1.3368,-0.3621,0.1991,1.399
18.555,2.0444,-0.5322,0.2144,2.123
18.555,2.4461,-0.4872,-0.0253,2.494
18.555,2.0899,-0.3108,-0.2621,2.129
18.555,1.8506,-0.1801,-0.4415,1.911
18.555,1.4808,-0.0231,-0.6641,1.623
18.555,0.7982,0.2532,-0.9179,1.242
18.556,-0.6486,0.8019,-0.9616,1.41
18.556,-2.4497,1.2234,-0.6763,2.82
18.556,-3.237,1.1166,-0.4588,3.455
18.556,-3.2285,0.7186,-0.3013,3.321
18.556,-3.4187,0.5387,0.036,3.461
18.556,-3.6112,0.4139,0.3553,3.652
18.557,-3.5209,0.2751,0.4509,3.56
18.557,-3.1594,0.1292,0.414,3.189
18.557,-2.6862,0.029,0.2707,2.7
18.557,-2.6055,0.0675,0.0446,2.607
18.558,-3.2016,0.2351,-0.1045,3.212
18.558,-2.9941,0.1373,-0.0666,2.998
18.558,-1.8695,-0.295,-0.0593,1.894
18.558,-0.7306,-0.7267,-0.1014,1.035
18.558,0.9097,-1.1557,-0.0349,1.471
18.558,1.8973,-1.4267,-0.2472,2.387
18.559,1.7479,-1.3412,-0.5212,2.264
18.559,-11.9358,1.8876,-3.0135,12.454
18.559,-1.5196,-0.1114,2.6958,3.097
18.559,-3.9814,-0.8698,-0.9993,4.196
18.559,-2.5272,-0.5876,-0.1571,2.599
18.56,1.6199,-1.4606,0.0243,2.181
18.56,14.8936,-4.4179,2.6979,15.768
18.56,13.7734,-4.5026,-1.7971,14.602
18.56,-1.8027,0.2025,-3.3477,3.808
18.56,-1.3668,0.5291,-0.1898,1.478
18.56,2.0462,-1.0806,-0.3333,2.338
18.561,0.0784,0.213,-1.3771,1.396
18.561,-3.7382,2.4567,-1.608,4.753
18.561,-6.706,3.2572,0.1059,7.456
18.561,-2.6623,1.1651,0.923,3.049
18.561,2.6562,-1.2736,1.9881,3.554
18.562,2.1996,-0.4738,0.4291,2.291
18.562,-0.7468,1.2333,-0.5821,1.555
18.562,2.9017,-0.0084,1.1085,3.106
18.562,10.1952,-3.6247,0.9311,10.86
18.562,-13.0216,5.6723,-4.8045,14.994
18.563,-1.2842,2.0769,1.1825,2.713
18.563,-0.0121,0.1804,0.1844,0.258
18.563,-1.9633,0.9675,-0.6303,2.278
18.563,2.734,-0.7227,0.7921,2.937
18.563,-0.0226,0.5045,0.4224,0.658
18.563,4.0583,-1.3531,1.5596,4.553
18.563,4.9034,-1.9972,1.0204,5.392
18.564,2.7185,-1.3791,-0.407,3.075
18.564,-2.9683,1.6426,-1.7859,3.834
18.564,1.8156,-0.2195,-0.5063,1.898
18.564,-4.2961,1.3892,-1.1362,4.656
18.564,-1.3642,0.2811,0.1424,1.4
18.564,2.8908,-1.8894,1.2949,3.688
18.565,-2.5977,0.3809,-0.534,2.679
18.565,0.2107,-0.5827,0.8019,1.013
18.565,0.5916,-1.237,0.2367,1.391
18.565,-1.1624,-0.2414,-0.4376,1.265
18.565,3.093,-1.5391,0.3309,3.471
18.565,2.4032,-1.2485,0.9028,2.855
18.565,6.4186,-1.6019,1.222,6.727
18.566,6.7592,-2.3354,-0.6487,7.181
18.566,0.1419,0.0606,-1.5368,1.545
18.566,-1.3368,0.774,-0.2782,1.57
18.566,-0.286,0.1317,-0.0967,0.329
18.566,-0.508,0.2168,-0.3163,0.637
18.566,-1.4237,0.7704,-0.0834,1.621
18.566,-1.859,0.8957,0.3647,2.096
18.566,-1.8792,0.6482,0.5135,2.053
18.567,-6.0962,2.4449,-0.7421,6.61
18.567,-7.1618,2.23,-0.0575,7.501
18.567,-5.6218,1.8151,0.2988,5.915
18.567,-4.3558,1.3604,0.1701,4.566
18.567,2.2604,-0.4897,2.08,3.111
18.567,-0.0158,0.1142,-0.1965,0.228
18.568,1.2016,-0.5663,-0.5085,1.422
18.568,6.1272,-1.4066,1.0662,6.376
18.568,2.1389,-1.1276,-1.0552,2.638
18.568,1.8132,-0.658,-0.7473,2.069
18.568,0.7218,-0.0002,0.556,0.911
18.568,7.6275,-2.1424,2.0197,8.176
18.569,5.1154,-2.4089,-1.0032,5.743
18.569,-4.3918,0.2388,-1.489,4.643
18.569,-3.2581,0.8857,1.5479,3.714
18.569,6.539,-3.0549,2.072,7.509
18.569,2.2464,-2.2541,-1.3612,3.461
18.569,-0.0012,-0.0155,-0.0328,0.036
18.57,-0.4583,0.0937,0.283,0.547
18.57,-0.9373,-0.3037,0.2061,1.007
18.57,-10.4051,2.316,-2.0516,10.855
18.57,0.0906,0.1027,4.1169,4.119
18.57,3.3591,-2.1539,0.3517,4.006
18.57,-1.1556,0.2118,-1.1679,1.657
18.57,-1.967,1.4874,0.2886,2.483
18.571,-0.2538,0.2951,0.6606,0.767
18.571,0.3967,-0.401,0.3812,0.681
18.571,-0.0571,0.0005,0.3355,0.34
18.571,-0.9541,0.4781,0.3155,1.113
18.571,-1.7003,0.599,0.4124,1.849
18.571,-2.1308,0.4402,0.4759,2.227
18.571,-2.4616,0.3318,0.3464,2.508
18.572,-2.4734,0.3242,0.3895,2.525
18.572,-2.0252,0.2425,0.4258,2.084
18.572,-1.3004,0.0488,0.3905,1.359
18.572,-0.2459,-0.2427,0.363,0.501
18.572,0.7424,-0.5075,0.1928,0.92
18.572,1.2234,-0.5976,0.059,1.363
18.572,1.3274,-0.4606,0.0854,1.408
18.572,-1.5753,-0.4288,-0.7334,1.79
18.573,2.1801,-0.1031,1.4462,2.618
18.573,0.8414,-0.0025,-0.5011,0.979
18.573,-3.1992,0.6311,-0.5977,3.315
18.573,-1.3517,0.4348,0.9376,1.702
18.573,-1.5524,0.1958,0.81,1.762
18.573,-0.7202,0.5953,0.3175,0.987
18.573,-1.0374,0.8248,-0.1843,1.338
18.573,-0.7766,0.8413,0.0572,1.146
18.574,-0.8741,0.7408,-0.0969,1.15
18.574,-1.1047,0.7575,-0.2808,1.369
18.574,-0.9376,0.7432,-0.2698,1.226
18.574,-0.5043,0.5139,-0.0947,0.726
18.574,0.7501,0.0194,0.2789,0.8
18.574,2.0447,-0.5201,0.2038,2.12
18.574,2.1564,-0.7723,-0.0426,2.291
18.575,-3.5814,-0.4124,-2.7625,4.542
18.575,0.3697,0.2819,2.7485,2.788
18.575,-2.5949,-0.3439,-1.1432,2.856
18.575,3.5981,-1.6504,1.6773,4.299
18.575,3.0918,-1.646,-0.3403,3.519
18.575,-0.7571,-0.657,-1.0255,1.434
18.575,-0.8928,-0.4649,-0.0287,1.007
18.576,-0.1359,-0.9016,0.2331,0.941
18.576,-0.2035,-0.8073,0.0646,0.835
18.576,-0.5628,-0.2783,-0.1318,0.642
18.576,-0.7294,0.0782,-0.2034,0.761
18.576,-0.4884,0.1235,-0.3103,0.592
18.576,-0.4324,0.1355,-0.3957,0.602
18.576,-0.4269,0.1641,-0.3379,0.569
18.576,-0.4643,0.2166,-0.1752,0.541
18.577,-0.3197,0.1997,0.0062,0.377
18.577,-0.2107,0.1757,0.0777,0.285
18.577,0.236,0.1492,0.2665,0.386
18.577,0.9656,-0.0064,0.3723,1.035
18.577,1.3184,-0.1094,0.2254,1.342
18.577,0.8377,0.0409,-0.1123,0.846
18.577,0.3579,0.2963,-0.2326,0.52
18.578,-2.4256,0.7046,-1.725,3.059
18.578,-3.45,1.6099,-0.1566,3.81
18.578,0.3967,0.3823,0.513,0.753
18.578,-2.497,0.4779,-0.8471,2.68
18.578,2.3777,-0.5334,1.1191,2.682
18.578,1.6527,-0.908,-0.1542,1.892
18.578,-0.1736,-0.2018,-0.6316,0.685
18.579,-0.3476,0.1786,-0.3502,0.525
18.579,-0.6034,0.1356,-0.4049,0.739
18.579,-0.948,0.1645,-0.3719,1.032
18.579,-1.051,0.2054,-0.196,1.089
18.579,-1.0609,0.1386,-0.1804,1.085
18.579,-0.918,0.0481,-0.1046,0.925
18.579,-0.3856,-0.0998,0.0243,0.399
18.579,-0.2213,-0.2595,-0.114,0.36
18.58,-0.7933,-0.1058,-0.384,0.888
18.58,-1.2797,0.1003,-0.3607,1.333
18.58,-1.4104,0.1198,-0.2206,1.433
18.58,-1.3586,0.0056,-0.0975,1.362
18.58,-1.11,-0.051,-0.0343,1.112
18.58,-0.6908,-0.1266,-0.0879,0.708
18.58,-0.1866,-0.1827,-0.0437,0.265
18.58,0.3675,-0.2962,-0.1233,0.488
18.58,0.7907,-0.2901,-0.1121,0.85
18.581,1.3307,0.7077,-0.1996,1.52
18.581,0.1417,-0.7884,-0.5161,0.953
18.581,0.2436,-0.5977,-0.0787,0.65
18.581,0.0909,-0.3857,0.0765,0.404
18.581,0.2105,-0.1118,0.1459,0.279
18.581,0.3592,-0.0008,0.3307,0.488
18.581,0.2477,0.0408,0.1738,0.305
18.581,0.0766,0.1396,0.1343,0.208
18.581,-0.0651,0.2263,0.1112,0.26
18.582,0.0892,0.6618,0.2046,0.698
18.582,-0.3894,0.5231,0.0225,0.653
18.582,-0.441,0.2005,0.07,0.49
18.582,-0.5475,0.3181,0.2368,0.676
18.582,-1.2391,-0.0399,-0.101,1.244
18.582,-0.6862,0.0519,0.2721,0.74
18.582,-0.6252,0.0888,0.002,0.631
18.582,-0.5601,0.1831,-0.0743,0.594
18.583,-0.5477,0.1793,-0.055,0.579
18.583,-0.354,0.1182,-0.0241,0.374
18.583,0.5873,-0.2296,0.3086,0.702
18.583,0.9689,-0.6536,0.0801,1.172
18.583,0.4048,-0.5131,-0.1337,0.667
18.583,-0.2531,-0.2318,-0.2071,0.401
18.583,-0.513,-0.099,-0.109,0.534
18.583,-0.6716,-0.1816,0.0727,0.7
18.583,-0.8632,-0.2163,0.0919,0.895
18.584,-0.9161,-0.184,0.2427,0.965
18.584,-0.8377,-0.2019,0.1426,0.873
18.584,-0.5822,-0.2007,0.2265,0.656
18.584,-0.2228,0.5556,0.0823,0.604
18.584,-0.5086,-0.1206,-0.3392,0.623
18.584,-0.0456,-0.2678,-0.0598,0.278
18.584,-0.4228,-0.6203,-0.091,0.756
18.584,-0.3103,-0.6593,0.3905,0.827
18.585,-0.3132,-0.4928,0.3486,0.68
18.585,-0.2992,-0.2284,0.1394,0.401
18.585,-0.0693,-0.1317,0.2244,0.269
18.585,0.0995,-0.1261,0.1657,0.231
18.585,0.1834,-0.1015,0.1426,0.253
18.585,0.1678,-0.0985,0.1624,0.253
18.585,0.1218,-0.1052,0.1511,0.221
18.585,0.0046,-0.0976,0.214,0.235
18.585,-0.0526,-0.1138,0.2125,0.247
18.586,-0.0929,-0.0656,0.2305,0.257
18.586,-0.0997,0.0208,0.2511,0.271
18.586,-0.0827,0.0927,0.1523,0.197
18.586,-0.0298,0.1263,0.1972,0.236
18.586,-0.0271,0.1288,0.0891,0.159
18.586,-0.0433,0.1049,0.1627,0.198
18.586,-0.0473,0.0644,0.1597,0.179
18.586,-0.0178,0.0239,0.1567,0.159
18.586,0.0093,-0.0022,0.1537,0.154
18.586,-0.0329,0.0171,0.0361,0.052
18.587,-0.0201,0.0101,0.1003,0.103
18.587,-0.0069,0.0078,0.0041,0.011
18.587,0.052,0.0486,0.0462,0.085
18.587,0.0372,-0.0326,0.0495,0.07
18.587,-0.0942,-0.1448,-0.0624,0.184
18.587,-0.2093,0.3333,0.0185,0.394
18.587,-0.3327,0.3137,-0.3149,0.555
18.587,-0.4034,-0.4874,-0.2825,0.693
18.587,-0.4222,-0.7019,0.1573,0.834
18.588,-0.2627,-0.5266,0.3731,0.697
18.588,-0.3144,-0.3396,0.3027,0.553
18.588,-0.422,-0.2076,0.1202,0.485
18.588,-0.2839,-0.1546,0.1076,0.341
18.588,-0.0336,-0.2069,0.0997,0.232
18.588,0.152,-0.1921,-0.0376,0.248
18.588,0.2824,-0.1224,-0.0122,0.308
18.588,0.365,-0.0265,-0.1209,0.385
18.589,0.4666,0.0477,-0.0977,0.479
18.589,0.6115,0.0645,-0.0864,0.621
18.589,0.6995,0.0357,-0.1802,0.723
18.589,0.6716,0.026,-0.0923,0.678
18.589,0.5661,0.0424,-0.1053,0.577
18.589,0.3854,0.0827,0.0032,0.394
18.589,0.2393,0.0559,0.1378,0.282
18.589,0.0534,0.0577,0.1049,0.131
18.589,-0.0511,0.0619,0.2059,0.221
18.589,-0.1959,0.0255,0.1611,0.255
18.59,-0.2021,-0.0181,0.2028,0.287
18.59,-0.2391,-0.1166,0.2065,0.337
18.59,-0.1609,-0.1935,0.1457,0.291
18.59,0.0516,-0.2608,0.2311,0.352
18.59,0.2886,-0.3641,0.092,0.474
18.59,0.4237,-0.4027,0.0799,0.59
18.59,0.2821,-0.3912,0.0176,0.483
18.59,-0.1338,-0.3702,-0.0832,0.402
18.59,-0.5113,-0.2989,0.0455,0.594
18.591,-0.7124,-0.2659,0.0211,0.761
18.591,-0.6897,-0.2257,0.1478,0.741
18.591,-0.443,-0.2476,0.2105,0.549
18.591,-0.4049,-0.1978,0.1349,0.47
18.591,0.2694,-0.4374,0.359,0.627
18.591,1.2218,-0.9182,0.3803,1.575
18.591,-0.3698,-0.1581,0.0934,0.413
18.591,1.2159,-0.6681,0.6202,1.52
18.591,1.9475,-1.1659,0.6454,2.36
18.592,1.0977,-0.6905,0.5176,1.396
18.592,-0.9116,0.1573,-0.0338,0.926
18.592,0.1348,0.2321,0.7568,0.803
18.592,1.442,-0.403,0.4624,1.567
18.592,-3.721,1.1212,-1.0651,4.03
18.592,-1.384,1.4491,0.7899,2.154
18.592,-2.4638,1.3061,0.0465,2.789
18.592,-3.472,1.3525,-0.432,3.751
18.593,-0.0404,0.9019,1.4135,1.677
18.593,-3.3294,0.93,-1.4736,3.758
18.593,-1.8499,1.2929,0.0201,2.257
18.593,-1.5158,0.8119,-0.0373,1.72
18.593,-0.0417,0.3626,0.5892,0.693
18.593,-0.0928,0.1025,0.1972,0.241
18.593,-0.5069,0.378,0.1616,0.653
18.594,-0.2986,0.1154,-0.0297,0.322
18.594,0.7629,0.0085,0.4391,0.88
18.594,1.8433,-0.3781,0.4903,1.945
18.594,0.5549,-0.3939,-0.5384,0.868
18.594,0.5202,-0.118,-0.013,0.534
18.594,0.9106,-0.2845,-0.0407,0.955
18.594,1.1245,-0.5131,-0.1276,1.243
18.594,1.4205,-0.5814,-0.0732,1.537
18.594,0.9182,-0.5659,-0.1626,1.091
18.595,0.9497,-0.861,0.0312,1.282
18.595,9.5079,-1.9853,3.1369,10.207
18.595,14.2854,-3.3196,1.6374,14.757
18.595,5.5584,-1.6941,-2.245,6.229
18.595,-5.4148,0.6587,-2.2529,5.902
18.596,0.0372,1.0589,2.0694,2.325
18.596,1.7227,-0.6041,1.1716,2.169
18.596,-2.6664,-0.6524,-1.5377,3.146
18.596,-3.2959,2.1178,0.8073,4
18.596,-0.7256,2.027,0.6037,2.236
18.596,-1.0014,1.241,-0.2177,1.609
18.596,-2.799,1.1325,-0.5498,3.069
18.597,-3.6291,1.242,0.0984,3.837
18.597,-3.3152,0.7852,0.6818,3.474
18.597,-2.7133,0.1497,0.7712,2.825
18.597,-2.3305,-0.1914,0.5177,2.395
18.597,-2.1213,-0.2026,0.3928,2.167
18.597,-1.8739,-0.2546,0.4306,1.94
18.598,-1.5328,-0.3832,0.3521,1.619
18.598,-0.891,-0.5953,0.21,1.092
18.598,-0.3072,-0.8885,0.0235,0.94
18.598,0.0327,-1.05,-0.1265,1.058
18.598,0.2322,-1.1324,-0.1614,1.167
18.598,0.6692,-1.2413,-0.0215,1.41
18.598,1.1742,-1.3716,0.0498,1.806
18.598,1.4201,-1.4328,0.0266,2.018
18.599,1.5122,-1.3508,0.0807,2.029
18.599,1.8647,-1.3049,0.157,2.281
18.599,1.9349,-1.2331,0.1189,2.297
18.599,1.8158,-0.9967,0.1766,2.079
18.599,1.5022,-0.6411,0.2032,1.646
18.599,0.9981,-0.2119,0.194,1.039
18.599,0.3646,0.2742,0.2181,0.506
18.599,0.2272,0.6619,0.5744,0.905
18.6,0.4148,0.9083,0.6511,1.192
18.6,-0.4522,1.1619,0.3452,1.294
18.6,-1.672,1.3748,0.3427,2.192
18.6,-2.3572,1.3845,0.5972,2.798
18.6,-2.6641,1.2559,0.6922,3.026
18.6,-2.7847,1.264,0.5254,3.103
18.6,-2.724,1.3059,0.2216,3.029
18.6,-2.3147,1.2523,-0.0705,2.633
18.601,-1.7811,1.0747,-0.2767,2.099
18.601,-1.3831,0.8473,-0.3588,1.661
18.601,-1.0552,0.5604,-0.3835,1.255
18.601,-0.8161,0.2071,-0.2867,0.889
18.601,-0.6389,-0.1746,-0.1638,0.682
18.601,-0.4632,-0.4578,0.0231,0.652
18.601,-0.1934,-0.7337,0.2147,0.788
18.601,0.0988,-0.8945,0.3488,0.965
18.602,0.3558,-1.0529,0.3374,1.162
18.602,0.0708,-0.9245,0.1566,0.94
18.602,-0.2731,-0.7794,0.2105,0.852
18.602,-0.3777,-0.7063,0.2286,0.833
18.602,-0.4394,-0.6667,0.211,0.826
18.602,-0.5348,-0.4885,0.1078,0.732
18.602,-0.643,-0.3989,0.0191,0.757
18.602,-0.7617,-0.2902,-0.0695,0.818
18.603,-0.7784,-0.1959,-0.1243,0.812
18.603,-0.7577,-0.0538,-0.1838,0.782
18.603,-0.6778,0.0189,-0.2171,0.712
18.603,-0.6318,0.1441,-0.2409,0.691
18.603,-0.6216,0.2788,-0.2363,0.721
18.603,-0.5825,0.2245,-0.194,0.654
18.603,-0.3419,0.1462,-0.0945,0.384
18.603,0.038,0.0226,-0.05,0.067
18.603,0.3684,-0.1081,-0.0602,0.389
18.604,0.5633,-0.1074,-0.118,0.585
18.604,0.6013,-0.0208,-0.1301,0.616
18.604,0.6644,-0.0157,-0.1183,0.675
18.604,0.7311,0.0252,-0.0896,0.737
18.604,0.6795,0.0778,-0.0802,0.689
18.604,0.5285,0.1302,-0.0876,0.551
18.604,-0.1472,0.2375,-0.294,0.406
18.604,-0.2176,0.3471,0.071,0.416
18.604,-0.1538,0.2128,0.0055,0.263
18.605,-0.8169,0.2507,-0.1174,0.863
18.605,-0.6746,0.2432,0.0226,0.717
18.605,-0.4534,0.0661,-0.0763,0.464
18.605,-0.232,-0.0751,-0.0815,0.257
18.605,0.2266,-0.1827,-0.0434,0.294
18.605,0.7766,-0.2712,-0.0262,0.823
18.605,0.9016,-0.2451,-0.1543,0.947
18.605,0.6927,-0.1139,-0.2944,0.761
18.605,0.6854,-0.0307,-0.2052,0.716
18.605,0.7763,-0.1244,-0.1114,0.794
18.606,0.7572,-0.1966,-0.0393,0.783
18.606,0.2194,-0.1706,-0.2138,0.351
18.606,-0.4542,-0.0825,-0.2475,0.524
18.606,-0.4318,-0.1235,0.0917,0.458
18.606,-0.4841,-0.1094,0.1875,0.531
18.606,0.0505,-0.3344,0.3132,0.461
18.606,-0.5255,-0.2387,0.002,0.577
18.606,-0.3059,-0.0786,0.1863,0.367
18.606,0.0326,-0.1099,0.2012,0.232
18.607,0.1795,-0.1053,0.1835,0.277
18.607,0.2999,-0.0792,0.1441,0.342
18.607,0.456,-0.022,0.0853,0.464
18.607,0.2583,0.0901,-0.0484,0.278
18.607,-0.0303,0.2642,-0.0945,0.282
18.607,-0.3141,0.3976,-0.12,0.521
18.607,-0.445,0.4545,-0.0146,0.636
18.607,-0.5357,0.4396,0.0017,0.693
18.607,-0.725,0.4799,-0.0373,0.87
18.607,-0.7285,0.4246,-0.0384,0.844
18.608,-0.5792,0.3407,-0.0275,0.673
18.608,-0.4036,0.1971,-0.031,0.45
18.608,-0.5237,0.2496,-0.0968,0.588
18.608,-0.4519,0.0559,-0.1608,0.483
18.608,-0.3393,-0.1591,-0.1033,0.389
18.608,-0.2266,-0.3213,-0.0437,0.396
18.608,-0.238,-0.402,-0.0894,0.476
18.608,-0.2496,-0.4205,-0.0945,0.498
18.608,-0.2016,-0.3624,0.0226,0.415
18.609,-0.1159,-0.3236,0.0755,0.352
18.609,0.0174,-0.3636,0.0594,0.369
18.609,0.0932,-0.3344,0.0675,0.354
18.609,0.0784,-0.3554,-0.0103,0.364
18.609,-0.2156,-0.276,-0.0978,0.364
18.609,-0.6121,-0.1369,-0.0851,0.633
18.609,-0.6041,-0.1175,0.0422,0.617
18.609,-0.4311,-0.189,0.081,0.478
18.609,-0.2843,-0.2007,0.0483,0.351
18.609,-0.0827,-0.1382,0.0038,0.161
18.61,0.2168,-0.095,0.0265,0.238
18.61,0.4995,-0.1045,0.0158,0.511
18.61,0.6606,-0.1093,0.0101,0.67
18.61,0.7409,-0.1165,0.0329,0.751
18.61,0.7955,-0.0807,0.0654,0.802
18.61,0.9753,-0.1144,0.1579,0.995
18.61,0.7494,-0.1386,0.0401,0.763
18.61,0.3328,0.0069,0.0299,0.334
18.61,0.3374,0.028,0.2109,0.399
18.61,0.3449,-0.0729,0.2056,0.408
18.611,0.0846,0.0055,0.1121,0.141
18.611,0.0084,0.0744,0.1141,0.136
18.611,-0.0179,0.0786,0.1138,0.139
18.611,-0.0829,0.1211,0.1016,0.179
18.611,-0.0765,0.178,0.1636,0.254
18.611,-0.0179,0.1846,0.1682,0.25
18.611,0.0644,0.1769,0.156,0.244
18.611,0.0582,0.1835,0.1269,0.231
18.611,-0.1894,0.2117,0.0593,0.29
18.612,-0.7718,0.2614,0.0008,0.815
18.612,-1.1563,0.3041,-0.0176,1.196
18.612,-0.8053,0.158,0.2194,0.849
18.612,-0.9121,0.1436,0.1235,0.932
18.612,-1.2283,0.311,0.0323,1.267
18.612,-0.3211,0.0409,0.257,0.413
18.612,-0.5553,-0.0257,0.0085,0.556
18.613,-0.9121,0.0752,0.0304,0.916
18.613,-0.9707,-0.0056,0.0472,0.972
18.613,-0.9746,-0.177,0.016,0.991
18.613,-1.0029,-0.2382,-0.0514,1.032
18.613,-1.015,-0.2348,-0.0662,1.044
18.613,-1.0348,-0.1835,-0.0593,1.053
18.613,-1.1365,-0.0702,-0.0161,1.139
18.613,-1.2004,-0.0549,-0.03,1.202
18.614,-0.9996,-0.1471,-0.0725,1.013
18.614,-0.7925,-0.2128,0.0024,0.821
18.614,-0.6938,-0.1924,-0.035,0.721
18.614,-0.5952,-0.2031,-0.1081,0.638
18.614,-0.4823,-0.1946,-0.083,0.527
18.614,-0.4579,-0.1814,-0.022,0.493
18.614,-0.4715,-0.1682,0.0655,0.505
18.614,-0.2838,-0.1838,0.1198,0.359
18.614,-0.0693,-0.2496,0.0953,0.276
18.615,0.1412,-0.2342,0.0878,0.287
18.615,0.4175,-0.2812,0.1185,0.517
18.615,0.7047,-0.3712,0.116,0.805
18.615,1.0218,-0.4183,0.1087,1.109
18.615,1.3663,-0.4154,0.1115,1.432
18.615,2.0179,-0.4533,0.2945,2.089
18.615,3.1106,-0.6349,0.4144,3.202
18.615,2.9785,-0.6134,-0.0125,3.041
18.615,1.4884,-0.1045,-0.5144,1.578
18.616,0.5621,0.282,-0.4394,0.767
18.616,0.3014,0.2092,-0.1221,0.387
18.616,0.0671,0.0625,0.1155,0.147
18.616,-0.328,0.1336,0.1569,0.387
18.616,-0.8011,0.3983,0.0716,0.898
18.616,-1.1544,0.6534,0.0367,1.327
18.616,-1.2279,0.746,0.0784,1.439
18.616,-1.1002,0.6713,0.1273,1.295
18.617,-0.9047,0.5778,0.0877,1.077
18.617,-0.6552,0.5586,0.0835,0.865
18.617,-0.3896,0.4605,0.115,0.614
18.617,0.017,0.2885,0.1823,0.342
18.617,0.4814,0.064,0.2475,0.545
18.617,0.9251,-0.1246,0.2416,0.964
18.617,1.21,-0.2199,0.1502,1.239
18.617,1.2027,-0.2652,0.0113,1.232
18.617,1.0586,-0.2819,-0.0128,1.096
18.618,0.9212,-0.3657,0.042,0.992
18.618,0.9624,-0.4973,0.1684,1.096
18.618,1.0071,-0.6265,0.2376,1.21
18.618,0.912,-0.6505,0.2641,1.151
18.618,0.6598,-0.5766,0.2167,0.903
18.618,0.5107,-0.4646,0.2411,0.731
18.618,0.2599,-0.379,0.1414,0.481
18.618,0.0539,-0.229,0.1253,0.267
18.618,0.086,-0.1148,0.152,0.209
18.618,0.2081,-0.07,0.1592,0.271
18.619,0.2568,-0.0251,0.1327,0.29
18.619,0.3207,-0.0398,0.168,0.364
18.619,-0.8482,0.3136,-0.3454,0.968
18.619,-12.8205,2.5317,-3.6289,13.563
18.619,-3.8598,2.4994,4.0229,6.11
18.619,-4.1409,-0.3195,0.8342,4.236
18.62,-1.2898,-0.5086,1.0221,1.722
18.62,0.0387,-0.5446,-0.239,0.596
18.62,1.358,-0.2223,-0.0421,1.377
18.62,-1.0711,0.6327,-0.5439,1.358
18.62,2.9257,-0.7553,-0.1415,3.025
18.62,0.2098,-0.6338,-0.7576,1.01
18.62,8.6923,-1.7248,1.4872,8.986
18.62,2.748,-1.4457,-0.5991,3.162
18.621,18.367,-3.2307,4.0527,19.084
18.621,5.8344,-2.3451,-4.9837,8.023
18.621,3.2597,0.473,0.3162,3.309
18.621,4.6738,0.6356,1.5456,4.964
18.621,1.8607,-0.2768,0.0954,1.884
18.621,-0.2114,0.0382,0.6178,0.654
18.621,-0.8331,0.8549,1.1745,1.675
18.622,-1.7567,1.2906,0.7856,2.317
18.622,-2.7172,1.4772,0.5854,3.148
18.622,-3.5737,1.5276,0.5362,3.923
18.622,-4.1426,1.3704,0.418,4.383
18.622,-4.342,1.1113,0.4224,4.502
18.622,-3.7177,0.7478,0.571,3.835
18.622,-2.7594,0.4163,0.5123,2.837
18.623,-1.5281,0.126,0.4185,1.589
18.623,0.0802,-0.1542,0.3276,0.371
18.623,1.7922,-0.4174,0.12,1.844
18.623,-2.5421,0.0212,-6.0763,6.587
18.623,-19.6614,1.3022,-6.441,20.73
18.623,-10.0085,3.819,9.5956,14.382
18.624,-4.7772,0.6058,6.0441,7.728
18.624,6.7054,-4.4301,3.1584,8.635
18.624,16.5698,-6.8426,0.8034,17.945
18.624,5.823,-2.7438,-7.8449,10.148
18.624,-5.3135,1.9693,-4.5983,7.298
18.625,13.0608,-0.352,8.1406,15.394
18.625,9.0372,-4.5557,-2.9802,10.55
18.625,1.6274,-2.7588,-0.8578,3.316
18.625,2.6862,-0.3574,1.1434,2.941
18.625,0.7172,0.4255,-0.1572,0.849
18.626,-1.7473,0.9662,1.1489,2.304
18.626,-3.6,1.3228,1.7378,4.211
18.626,-5.0902,1.4074,1.8046,5.581
18.626,-5.8472,1.4858,1.5534,6.23
18.626,-5.8546,1.6224,1.3149,6.216
18.626,-4.9686,1.5566,1.1092,5.324
18.627,-3.1282,1.1495,0.7716,3.421
18.627,-0.6274,0.6378,0.2685,0.934
18.627,0.7748,0.4038,-0.2284,0.903
18.627,1.1636,0.2966,-0.4807,1.293
18.627,1.1284,0.101,-0.5317,1.251
18.627,0.9083,-0.0945,-0.5945,1.09
18.627,-4.5857,0.2762,-4.7364,6.598
18.627,-17.7205,2.2607,-0.3737,17.868
18.628,3.8349,-0.1663,9.805,10.53
18.628,9.2269,-4.321,1.8952,10.363
18.628,1.6139,-2.2191,-6.5154,7.07
18.628,3.555,-0.0365,-1.2568,3.771
18.628,3.4505,-1.3365,-0.3061,3.713
18.628,0.9118,-2.107,-0.0965,2.298
18.629,-0.9789,-1.2417,0.4729,1.65
18.629,-2.2824,-0.2698,1.0353,2.521
18.629,-2.7058,0.2063,1.1018,2.929
18.629,-2.7152,0.3401,1.1627,2.973
18.629,-2.4704,0.2491,1.4274,2.864
18.629,-1.93,0.0484,1.4097,2.391
18.629,-1.2804,-0.0517,1.2268,1.774
18.63,-0.6049,-0.0752,0.8743,1.066
18.63,-0.1873,0.016,0.3692,0.414
18.63,-3.1613,0.5516,-2.1833,3.881
18.63,-1.0804,0.9412,3.4264,3.714
18.63,3.1931,-0.4363,0.1125,3.225
18.63,0.1676,-0.1656,-1.6375,1.654
18.63,1.6728,0.64,-0.6726,1.913
18.63,1.3664,0.436,-0.9758,1.735
18.631,0.7891,0.2537,-0.7588,1.124
18.631,0.2702,0.3872,-0.5073,0.693
18.631,-0.1505,0.4824,-0.1371,0.524
18.631,-0.4593,0.5178,0.0556,0.694
18.631,-0.6829,0.5245,0.2005,0.884
18.631,-0.8952,0.4668,0.2809,1.048
18.631,-1.056,0.3662,0.2634,1.148
18.631,-0.8595,0.2755,0.4111,0.992
18.631,0.0028,0.0366,0.4039,0.406
18.631,0.4676,-0.1254,0.0217,0.485
18.632,0.7487,-0.0771,-0.1354,0.765
18.632,0.811,-0.0767,-0.2278,0.846
18.632,0.6309,-0.0454,-0.2033,0.664
18.632,0.2539,0.0217,-0.1074,0.277
18.632,-0.1171,0.2009,-0.0069,0.233
18.632,-0.3509,0.2054,0.0576,0.411
18.632,-0.5413,0.0904,0.1292,0.564
18.632,-0.9017,0.052,0.1197,0.911
18.632,-1.3248,0.0927,-0.0305,1.328
18.633,-1.5981,0.1955,-0.0922,1.613
18.633,-1.6212,0.2266,-0.1587,1.645
18.633,-1.3321,0.1502,-0.0865,1.343
18.633,-0.8957,-0.0312,-0.1097,0.903
18.633,-0.4242,-0.167,-0.2402,0.515
18.633,0.0088,-0.2787,-0.3607,0.456
18.633,0.1934,-0.3307,-0.5047,0.634
18.633,0.0535,-0.2847,-0.6201,0.684
18.633,-0.3107,-0.1526,-0.5634,0.661
18.634,-0.2917,-0.016,-0.3228,0.435
18.634,-0.3106,-0.0134,-0.3528,0.47
18.634,-0.2579,-0.1184,-0.2656,0.389
18.634,-0.1648,-0.2232,-0.1902,0.336
18.634,-0.1629,-0.2252,-0.2004,0.343
18.634,-0.1594,-0.2319,-0.2867,0.402
18.634,-0.1129,-0.1382,-0.2865,0.338
18.634,0.0844,-0.102,-0.169,0.215
18.635,0.4039,-0.1138,-0.075,0.426
18.635,1.1426,-0.1855,0.0977,1.162
18.635,1.7599,-0.2668,-0.0064,1.78
18.635,1.4744,-0.0733,-0.2895,1.504
18.635,1.0657,0.2442,-0.2977,1.133
18.635,0.6177,0.4561,-0.2437,0.806
18.635,-0.0908,0.6009,-0.1523,0.626
18.635,-0.5771,0.7098,-0.0351,0.915
18.635,-0.8872,0.7781,0.0818,1.183
18.636,-0.9114,0.7316,0.2079,1.187
18.636,-0.7407,0.5444,0.1331,0.929
18.636,-0.6211,0.4124,-0.0182,0.746
18.636,-0.538,0.2951,-0.1744,0.638
18.636,-0.3047,0.1516,-0.252,0.423
18.636,-0.1529,0.0155,-0.342,0.375
18.636,-0.1062,-0.063,-0.3963,0.415
18.636,-0.0091,-0.1463,-0.4053,0.431
18.636,0.1337,-0.239,-0.4117,0.494
18.637,0.2362,-0.3078,-0.382,0.544
18.637,0.3126,-0.3933,-0.3378,0.605
18.637,0.2746,-0.4477,-0.2934,0.602
18.637,-0.0356,-0.4208,-0.3159,0.527
18.637,-1.242,-0.2313,-0.4271,1.334
18.637,-1.6547,-0.1352,0.1667,1.669
18.637,-1.3822,-0.2948,0.3682,1.46
18.637,-1.4696,-0.3466,0.1183,1.515
18.638,-1.4599,-0.1521,0.0412,1.468
18.638,-1.3172,-0.0223,-0.0067,1.317
18.638,-0.8934,-0.2582,-0.1431,0.941
18.638,-0.4537,-0.4006,-0.129,0.619
18.638,0.0855,-0.5189,-0.2244,0.572
18.638,0.1176,-0.4841,-0.5681,0.756
18.638,-0.025,-0.2653,-0.6104,0.666
18.638,-0.0315,-0.1902,-0.55,0.583
18.639,-0.1788,-0.1199,-0.4467,0.496
18.639,-0.259,-0.0401,-0.3056,0.403
18.639,-0.2434,0.0229,-0.3011,0.388
18.639,-0.125,0.0643,-0.2681,0.303
18.639,-0.3507,0.1224,-0.3455,0.507
18.639,-0.6267,0.2211,-0.2607,0.714
18.639,-0.6544,0.1932,-0.1403,0.697
18.639,-0.6536,0.1294,-0.0871,0.672
18.639,-0.7418,0.1471,-0.1344,0.768
18.64,-0.7951,0.1912,-0.1338,0.829
18.64,-0.6052,0.1301,-0.1045,0.628
18.64,-0.4231,0.0524,-0.1084,0.44
18.64,0.0194,-0.0873,-0.0833,0.122
18.64,0.4501,-0.1505,-0.192,0.512
18.64,0.8623,-0.1587,-0.2552,0.913
18.64,1.3068,-0.1863,-0.2704,1.347
18.64,1.7865,-0.2141,-0.2784,1.821
18.64,1.9527,-0.211,-0.3844,2.001
18.64,1.5878,-0.0672,-0.4908,1.663
18.641,1.0839,0.1121,-0.4423,1.176
18.641,0.7706,0.1716,-0.2821,0.838
18.641,0.669,0.1449,-0.1844,0.709
18.641,0.3887,0.1994,-0.1778,0.472
18.641,0.1779,0.2945,-0.1354,0.37
18.641,0.1701,0.3059,-0.0334,0.352
18.641,0.2048,0.2959,0.0159,0.36
18.641,0.2223,0.3003,0.0195,0.374
18.641,0.2823,0.2904,0.0037,0.405
18.642,0.3396,0.2638,0.0118,0.43
18.642,0.3944,0.2468,-0.0114,0.465
18.642,0.3584,0.2347,-0.0587,0.432
18.642,0.2221,0.256,-0.087,0.35
18.642,0.0572,0.2558,-0.0941,0.278
18.642,-0.0383,0.2079,-0.0418,0.215
18.642,-0.1337,0.1433,0.0031,0.196
18.642,-0.2243,0.086,0.0789,0.253
18.642,-0.1954,-0.0477,0.1476,0.249
18.642,-0.0635,-0.1885,0.1543,0.252
18.643,0.0735,-0.3005,0.1327,0.337
18.643,0.1556,-0.4028,0.0539,0.435
18.643,0.2931,-0.4621,0.0161,0.547
18.643,0.3616,-0.4831,-0.0097,0.604
18.643,0.3802,-0.4468,-0.0113,0.587
18.643,0.2961,-0.3843,-0.0438,0.487
18.643,0.1429,-0.2908,-0.0261,0.325
18.643,-0.0342,-0.2165,0.0131,0.22
18.643,-0.245,-0.1375,0.0428,0.284
18.643,-0.4535,-0.0466,0.082,0.463
18.644,-0.6388,-0.0154,0.1378,0.654
18.644,-0.8052,0.097,0.1769,0.83
18.644,-0.9046,0.3479,0.1634,0.983
18.644,-0.6721,0.0394,0.1759,0.696
18.644,-0.3256,-0.2185,0.3249,0.509
18.644,-0.1331,-0.328,0.35,0.498
18.644,-0.0297,-0.3369,0.1582,0.373
18.644,0.1142,-0.2334,0.0289,0.261
18.644,0.2584,-0.1446,0.0026,0.296
18.645,0.4581,-0.0845,-0.031,0.467
18.645,0.6587,-0.1107,-0.0386,0.669
18.645,0.803,-0.1442,-0.0606,0.818
18.645,0.6014,-0.0224,-0.0493,0.604
18.645,0.2213,0.159,-0.0096,0.273
18.645,0.0021,0.1919,0.1065,0.22
18.645,-0.1258,0.2057,0.1889,0.306
18.645,-0.3874,0.2338,0.221,0.504
18.645,-0.4889,0.2165,0.2697,0.599
18.645,-0.4925,0.1729,0.309,0.607
18.646,-0.5062,0.0912,0.3341,0.613
18.646,-0.4463,0.0049,0.3402,0.561
18.646,-0.2361,-0.0646,0.2774,0.37
18.646,0.0884,-0.1364,0.2531,0.301
18.646,0.5926,-0.3205,0.1478,0.69
18.646,-0.6596,-0.1675,-0.4336,0.807
18.646,0.2142,-0.1007,0.5414,0.591
18.646,-0.0195,-0.3661,-0.1222,0.386
18.646,-0.3569,-0.2057,0.011,0.412
18.647,-0.236,-0.1936,0.1228,0.329
18.647,-0.1326,-0.2627,0.1033,0.312
18.647,0.0615,-0.2504,0.1104,0.28
18.647,-0.0457,-0.1354,0.0193,0.144
18.647,-0.454,0.0344,-0.0027,0.455
18.647,-0.5514,0.0918,0.1136,0.57
18.647,-0.2782,-0.0158,0.2058,0.346
18.647,0.1024,-0.1472,0.2244,0.287
18.647,0.4473,-0.183,0.1764,0.514
18.647,0.7542,-0.2021,0.1409,0.793
18.648,0.9806,-0.2261,0.0578,1.008
18.648,1.1345,-0.2167,-0.0652,1.157
18.648,-15.4336,3.1451,-4.8707,16.487
18.648,-13.2099,4.4143,2.5783,14.165
18.648,-2.8594,-1.2203,4.1578,5.192
18.648,1.5734,-4.022,2.7352,5.112
18.649,2.5889,-3.2263,-0.0782,4.137
18.649,0.416,-0.3591,-1.5312,1.627
18.649,-0.5866,0.6173,-2.0932,2.26
18.649,1.2611,-0.4987,-1.9566,2.381
18.649,4.266,-1.497,-1.2127,4.681
18.649,2.8468,-1.1466,-0.2857,3.082
18.65,2.4702,-0.6183,0.2226,2.556
18.65,12.1678,-3.0805,3.5957,13.057
18.65,17.7513,-4.5344,-0.9828,18.348
18.65,-11.0532,2.3983,-8.8215,14.344
18.65,-0.8076,5.3243,7.3856,9.14
18.651,5.0768,-1.9582,-4.2688,6.916
18.651,-2.2492,-0.1881,3.745,4.373
18.651,-0.8467,2.4741,1.6,3.066
18.651,5.3273,0.3556,2.3756,5.844
18.651,-6.346,2.6619,-4.5515,8.251
18.651,6.1753,2.7965,5.1637,8.522
18.652,4.8508,0.9328,-2.6538,5.607
18.652,0.6538,1.4191,-1.0371,1.875
18.652,1.7316,1.3704,0.9889,2.42
18.652,0.8262,0.519,0.4226,1.063
18.652,-0.2216,0.5145,1.092,1.227
18.652,-1.177,1.0068,0.8692,1.776
18.652,-2.3204,1.0727,0.6014,2.626
18.653,-3.1079,0.749,0.4938,3.235
18.653,-3.3872,0.2608,0.1443,3.4
18.653,-3.172,-0.301,-0.0478,3.187
18.653,-2.0457,-0.7525,-0.2405,2.193
18.653,-3.0023,-0.7613,-0.2017,3.104
18.653,-3.424,-1.0017,0.0169,3.568
18.654,-3.4714,-1.2967,0.0425,3.706
18.654,-3.0707,-1.4455,0.0661,3.395
18.654,-2.617,-1.5246,0.0495,3.029
18.654,-12.3435,0.07,-5.6511,13.576
18.654,-1.4162,-0.4419,8.1238,8.258
18.655,4.4517,-4.4002,0.8908,6.322
18.655,-4.0346,-2.5819,-2.4749,5.392
18.655,-2.0583,-0.3874,0.0092,2.094
18.655,0.0247,-1.1828,-0.8688,1.468
18.655,-0.4936,-1.5066,-0.5525,1.679
18.655,-0.6423,-1.204,0.0391,1.365
18.655,-0.4479,-1.0383,0.1243,1.138
18.656,-0.5947,-0.7965,0.2563,1.027
18.656,-0.7914,-0.4188,0.1504,0.908
18.656,-0.6507,-0.1182,0.0621,0.664
18.656,-0.2397,0.0984,0.0366,0.262
18.656,0.2002,0.348,-0.0484,0.404
18.656,0.6264,0.5518,-0.0973,0.84
18.656,1.0103,0.7289,-0.1606,1.256
18.656,1.3787,0.8291,-0.2602,1.63
18.656,1.6864,0.9004,-0.3246,1.939
18.657,1.8595,0.9857,-0.3732,2.137
18.657,1.9531,1.0349,-0.4038,2.247
18.657,1.9192,1.0839,-0.3542,2.232
18.657,1.8392,1.1423,-0.3297,2.19
18.657,1.7201,1.1478,-0.2656,2.085
18.657,1.5713,1.1653,-0.1836,1.965
18.657,1.376,1.142,-0.105,1.791
18.657,1.1653,1.0637,-0.0226,1.578
18.658,0.9675,0.9591,0.0735,1.364
18.658,0.7896,0.8188,0.1378,1.146
18.658,0.5763,0.6619,0.0774,0.881
18.658,0.3013,0.5722,0.0739,0.651
18.658,0.1577,0.4444,0.051,0.474
18.658,-0.0053,0.2715,-0.0175,0.272
18.658,-0.2332,0.1276,-0.0696,0.275
18.658,-0.4214,0.0175,-0.1123,0.436
18.658,-0.4767,-0.1018,-0.1168,0.501
18.658,-0.4852,-0.2305,-0.1808,0.567
18.659,-0.428,-0.3277,-0.2637,0.6
18.659,-0.3837,-0.3888,-0.3464,0.647
18.659,-0.4383,-0.3829,-0.3835,0.697
18.659,-0.5938,-0.4319,-0.2673,0.781
18.659,-0.7331,-0.4831,-0.0505,0.879
18.659,-0.9254,-0.57,0.1499,1.097
18.659,-1.1758,-0.6114,0.284,1.355
18.659,-1.3814,-0.5476,0.3545,1.528
18.659,-1.4254,-0.4574,0.2919,1.525
18.66,-1.3793,-0.3123,0.1776,1.425
18.66,-1.2263,-0.1818,0.0616,1.241
18.66,-1.0929,-0.1254,-0.0517,1.101
18.66,-1.0249,-0.0786,-0.1194,1.035
18.66,-0.9361,-0.0341,-0.1102,0.943
18.66,-0.8363,-0.0158,-0.1295,0.846
18.66,-0.7951,-0.0023,-0.1509,0.809
18.66,-0.7045,0.0425,-0.1767,0.728
18.661,-0.2125,-0.0204,-0.1973,0.291
18.661,-0.3748,0.0888,-0.4,0.555
18.661,-0.5415,0.2623,-0.2777,0.663
18.661,-0.3177,0.187,-0.084,0.378
18.661,-0.2844,0.083,-0.0413,0.299
18.661,-0.3741,0.0056,-0.008,0.374
18.661,-0.4772,-0.0073,0.0084,0.477
18.661,-0.236,0.5626,0.1875,0.638
18.661,0.2289,0.2496,0.1771,0.382
18.661,-0.6526,-0.3806,-0.721,1.044
18.662,-0.4081,-0.6085,-0.2842,0.786
18.662,-0.0667,-0.413,0.1646,0.45
18.662,0.2575,-0.3158,0.2072,0.457
18.662,0.4452,-0.2665,0.0015,0.519
18.662,0.6333,-0.16,-0.1658,0.674
18.662,0.748,-0.1183,-0.2976,0.814
18.662,0.8542,-0.0075,-0.3246,0.914
18.663,0.8923,0.0456,-0.2825,0.937
18.663,0.9364,0.0698,-0.2527,0.972
18.663,1.0032,0.0747,-0.2016,1.026
18.663,0.9776,0.1344,-0.2321,1.014
18.663,0.8978,0.127,-0.2221,0.934
18.663,0.7614,0.1912,-0.1885,0.807
18.663,0.6258,0.241,-0.1792,0.694
18.663,0.5242,0.3002,-0.1653,0.626
18.663,0.4564,0.3473,-0.1374,0.59
18.664,0.4033,0.3537,-0.05,0.539
18.664,0.4896,0.403,0.066,0.638
18.664,0.4733,0.3997,0.0767,0.624
18.664,0.2154,0.2267,-0.0658,0.32
18.664,0.228,0.0993,0.0287,0.25
18.664,0.2023,0.1393,0.1592,0.293
18.664,0.0572,0.1244,0.1726,0.22
18.664,-0.0686,0.0998,0.1002,0.157
18.664,-0.1106,0.0872,0.0473,0.149
18.665,-0.1453,0.0602,-0.0196,0.158
18.665,-0.2182,0.0357,-0.0791,0.235
18.665,-0.241,-0.039,-0.0451,0.248
18.665,-0.276,-0.1566,-0.0204,0.318
18.665,-0.2659,-0.2501,0.0143,0.365
18.665,-0.1701,-0.2981,0.1477,0.374
18.665,0.0283,-0.2648,0.2171,0.344
18.665,0.0904,-0.062,0.1937,0.223
18.665,-0.2973,-0.1222,-0.0544,0.326
18.666,-0.4341,-0.3281,-0.099,0.553
18.666,-0.5422,-0.4046,-0.1267,0.688
18.666,-0.5144,-0.4308,-0.0967,0.678
18.666,-0.5492,-0.4067,-0.1886,0.709
18.666,-0.5704,-0.404,-0.2421,0.74
18.666,-0.5132,-0.3511,-0.2263,0.662
18.666,-0.3294,-0.3293,-0.1222,0.481
18.666,-0.2317,-0.2908,-0.0065,0.372
18.666,-0.208,-0.1974,0.0372,0.289
18.666,-0.1885,-0.1567,0.083,0.259
18.667,-0.2205,-0.1593,0.1069,0.292
18.667,-0.3302,-0.0234,0.1327,0.357
18.667,-0.4199,0.1553,0.1054,0.46
18.667,-0.4975,0.2477,0.0325,0.557
18.667,-0.542,0.3138,-0.0141,0.626
18.667,-0.5514,0.3106,0.0802,0.638
18.667,-0.8563,0.3435,0.1863,0.941
18.667,-0.8975,0.2334,0.0437,0.928
18.667,-0.7081,0.0877,-0.0726,0.717
18.668,-0.2037,0.0307,0.0408,0.21
18.668,0.0139,0.0286,-0.0376,0.049
18.668,0.1221,0.0527,-0.0902,0.161
18.668,0.125,0.1056,-0.1458,0.219
18.668,0.2044,0.187,-0.0701,0.286
18.668,0.0733,0.2374,-0.1141,0.273
18.668,0.0139,0.1395,-0.113,0.18
18.668,0.0096,0.0465,-0.093,0.104
18.668,-0.0808,0.0397,-0.0637,0.11
18.668,-0.09,-0.0195,-0.0157,0.093
18.669,0.0127,-0.1336,0.0369,0.139
18.669,0.0814,-0.1567,0.0798,0.194
18.669,0.0255,-0.2227,0.032,0.226
18.669,0.0343,-0.2648,-0.0061,0.267
18.669,0.0072,-0.2327,0.0206,0.234
18.669,-0.0054,-0.196,0.0521,0.203
18.669,-0.0177,-0.1688,0.0908,0.193
18.669,-0.0224,-0.1561,0.0912,0.182
18.669,-0.0221,-0.122,0.1227,0.174
18.669,0.0718,-0.1071,0.159,0.205
18.67,0.1709,-0.1138,0.1834,0.275
18.67,0.2725,-0.1397,0.1958,0.364
18.67,0.3913,-0.1465,0.1917,0.46
18.67,0.4723,-0.108,0.1877,0.52
18.67,0.5969,-0.1342,0.2099,0.647
18.67,0.5642,-0.1246,0.1555,0.598
18.67,0.6065,-0.1008,0.1751,0.639
18.67,0.6996,-0.1464,0.1778,0.737
18.67,0.5663,-0.0845,0.1827,0.601
18.671,0.5459,-0.0395,0.1923,0.58
18.671,0.4472,0.0125,0.1872,0.485
18.671,-0.7606,0.2917,-0.4283,0.92
18.671,-0.889,0.5135,0.6538,1.217
18.671,0.4219,-0.1899,0.4659,0.657
18.671,-1.5461,0.2357,-0.2023,1.577
18.671,-0.0239,0.1208,0.8808,0.889
18.671,0.7018,-0.3335,0.2374,0.812
18.671,-0.6338,0.2453,-0.2504,0.724
18.671,-0.0356,0.3671,0.3569,0.513
18.672,0.1063,0.0417,-0.1144,0.162
18.672,0.6649,-0.035,0.3302,0.743
18.672,0.5335,-0.0878,0.0928,0.549
18.672,0.159,0.0912,0.1301,0.225
18.672,-0.3854,0.1937,0.0882,0.44
18.672,-0.3467,0.1408,0.2565,0.454
18.672,-1.0165,0.265,0.2647,1.083
18.672,0.028,-0.0914,0.5796,0.587
18.672,0.2116,-0.2492,0.2877,0.435
18.673,-0.1097,0.002,0.1181,0.161
18.673,-0.1327,0.0259,0.0349,0.14
18.673,0.0255,-0.0792,0.0262,0.087
18.673,0.1121,-0.1508,0.0774,0.203
18.673,0.0604,-0.165,0.1263,0.216
18.673,0.0114,-0.1887,0.1991,0.275
18.673,0.0031,-0.2292,0.1905,0.298
18.673,0.2006,-0.2649,0.2371,0.408
18.673,0.556,-0.3557,0.2551,0.708
18.674,0.7566,-0.3126,0.1633,0.835
18.674,0.8459,-0.2339,0.1168,0.885
18.674,0.3832,-0.0454,-0.0328,0.387
18.674,-0.0028,0.0115,-0.0227,0.026
18.674,-0.0754,-0.1156,0.1092,0.176
18.674,-0.277,-0.0895,0.1764,0.34
18.674,-0.5218,-0.0061,0.2602,0.583
18.674,-0.7457,0.1299,0.2795,0.807
18.674,-0.8653,0.187,0.2824,0.929
18.675,-0.3308,0.0315,0.3741,0.5
18.675,-0.0815,-0.057,0.2149,0.237
18.675,-0.0885,-0.0162,0.0537,0.105
18.675,0.1889,0.0078,0.1101,0.219
18.675,0.3064,-0.028,0.0082,0.308
18.675,-4.0764,1.0122,-1.425,4.435
18.675,-0.9973,0.7134,1.9686,2.319
18.675,4.3058,-2.158,0.9277,4.905
18.676,1.12,-0.7891,-0.6627,1.522
18.676,-2.89,1.2266,-1.8104,3.624
18.676,-4.0979,2.02,0.0772,4.569
18.676,2.3557,-0.7584,2.258,3.35
18.676,-0.5334,-1.3167,-1.2592,1.898
18.676,-1.2421,0.3153,0.896,1.564
18.676,0.8571,-0.6742,-0.0893,1.094
18.677,-0.5169,-0.0516,-0.1417,0.538
18.677,-1.202,0.5493,0.2673,1.348
18.677,2.8954,-0.8778,1.5434,3.396
18.677,2.1551,-1.2621,-0.9173,2.661
18.677,1.9546,-0.0019,-0.0639,1.956
18.677,3.1245,-0.0458,1.0662,3.302
18.677,5.9527,-1.4078,-0.156,6.119
18.678,2.8277,-0.441,-1.0685,3.055
18.678,-0.215,0.8284,-0.5506,1.018
18.678,1.0471,0.3756,0.7363,1.334
18.678,0.2804,-0.0171,0.1742,0.331
18.678,-1.0982,0.6521,0.3914,1.336
18.678,-2.1277,1.2852,0.4669,2.529
18.678,-3.0289,1.3972,0.4514,3.366
18.678,-6.9589,1.9737,-0.528,7.253
18.679,-4.0392,1.1022,1.4749,4.439
18.679,-6.607,0.8898,0.6314,6.697
18.679,-4.3534,0.4849,1.6312,4.674
18.679,-1.7266,-0.5816,1.1937,2.178
18.679,-0.6762,-0.6072,1.0286,1.373
18.679,-1.1932,-0.1713,-0.7376,1.413
18.68,0.4681,-0.0942,0.4838,0.68
18.68,0.065,-0.4812,-1.5587,1.633
18.68,3.2061,-1.0763,0.2622,3.392
18.68,4.6488,-1.8728,-0.8665,5.086
18.68,6.6862,-1.6463,1.4328,7.033
18.68,0.5504,-0.8568,-2.8849,3.059
18.68,-0.2764,0.5773,0.1498,0.657
18.681,0.852,-0.5908,0.7378,1.273
18.681,1.7294,-1.9668,-1.0164,2.809
18.681,-0.1982,-0.3416,0.632,0.745
18.681,2.004,-0.4963,1.5628,2.589
18.681,1.2445,-0.5768,0.1971,1.386
18.681,0.8537,0.0602,-0.1485,0.869
18.681,0.1452,0.4984,-0.3555,0.629
18.681,0.5572,0.3771,0.0325,0.674
18.682,0.0334,0.2822,-0.2079,0.352
18.682,-8.2323,1.8326,-2.2157,8.72
18.682,-3.5343,1.659,3.0075,4.928
18.682,-0.3652,-0.5387,2.3775,2.465
18.682,4.9199,-1.6087,1.866,5.502
18.682,-1.3354,0.8264,-2.2293,2.727
18.682,-1.0354,2.3897,0.1444,2.608
18.683,1.8752,0.679,0.1763,2.002
18.683,1.921,-0.3754,-0.2878,1.978
18.683,0.9313,0.0098,-0.2495,0.964
18.683,0.1624,0.4494,-0.1078,0.49
18.683,-0.1957,0.5298,0.0262,0.565
18.683,-0.7086,0.5408,-0.0816,0.895
18.683,-1.2792,0.4875,-0.2372,1.389
18.683,-1.7649,0.432,-0.2085,1.829
18.683,-2.0201,0.3124,-0.0981,2.046
18.684,-2.0403,0.1094,0.039,2.044
18.684,-1.9452,-0.1242,0.1024,1.952
18.684,-1.828,-0.3573,0.0876,1.865
18.684,-1.629,-0.5373,0.114,1.719
18.684,-1.3482,-0.6645,0.1317,1.509
18.684,-1.0427,-0.8176,0.0686,1.327
18.684,-0.9202,-0.8701,-0.0705,1.268
18.685,-0.8726,-0.8531,-0.0967,1.224
18.685,-0.816,-0.8504,-0.0867,1.182
18.685,-0.6856,-0.8765,-0.0476,1.114
18.685,-0.5936,-0.8451,-0.1063,1.038
18.685,-0.4655,-0.7589,-0.1358,0.901
18.685,-0.3253,-0.6561,-0.1462,0.747
18.685,-0.2614,-0.501,-0.2066,0.602
18.685,-0.1637,-0.3556,-0.1976,0.439
18.685,-0.0156,-0.2439,-0.1671,0.296
18.686,0.0993,-0.1563,-0.1749,0.255
18.686,0.2096,-0.0449,-0.1781,0.279
18.686,0.3897,0.1044,-0.1072,0.417
18.686,0.5679,0.1986,-0.0818,0.607
18.686,0.6103,0.3044,-0.1113,0.691
18.686,0.7106,0.391,-0.0812,0.815
18.686,0.8069,0.4677,-0.0847,0.936
18.687,0.9684,0.5347,-0.074,1.109
18.687,1.0852,0.5967,-0.0635,1.24
18.687,1.2007,0.656,-0.0963,1.372
18.687,1.2933,0.6769,-0.0792,1.462
18.687,1.3391,0.669,-0.1172,1.502
18.687,1.3549,0.6131,-0.1556,1.495
18.687,1.2908,0.581,-0.1824,1.427
18.687,1.1875,0.5201,-0.1784,1.309
18.687,1.0541,0.4711,-0.1533,1.165
18.687,0.91,0.4196,-0.0948,1.007
18.688,0.7617,0.3179,-0.0484,0.827
18.688,0.6046,0.2068,-0.0044,0.639
18.688,0.448,0.0837,0.0111,0.456
18.688,0.2987,-0.001,0.0243,0.3
18.688,0.2067,-0.0807,0.0211,0.223
18.688,0.0907,-0.1556,-0.0369,0.184
18.688,-0.0737,-0.1968,-0.1521,0.259
18.688,-0.265,-0.214,-0.1953,0.393
18.688,-0.3015,-0.2501,-0.1497,0.419
18.689,-0.3004,-0.3029,-0.1638,0.457
18.689,-0.3092,-0.3292,-0.185,0.488
18.689,-0.3256,-0.3172,-0.1275,0.472
18.689,-0.3068,-0.3433,-0.0317,0.462
18.689,-0.2148,-0.398,0.0189,0.453
18.689,-0.0781,-0.4263,0.0626,0.438
18.689,-0.09,-0.3709,0.0372,0.383
18.689,-0.2002,-0.3107,-0.012,0.37
18.689,-0.325,-0.1789,0.0104,0.371
18.689,-0.2827,-0.1547,0.0925,0.335
18.69,-0.1999,-0.1377,0.0742,0.254
18.69,-0.0933,-0.1231,0.0583,0.165
18.69,-0.0491,-0.0894,0.0521,0.114
18.69,-0.0124,-0.0365,0.0409,0.056
18.69,0.0335,-0.01,0.0895,0.096
18.69,0.0717,-0.0217,0.119,0.141
18.69,0.1118,-0.0237,0.1294,0.173
18.69,0.1398,0.0197,0.1326,0.194
18.69,0.1654,0.0511,0.0999,0.2
18.69,0.2126,0.0514,0.0957,0.239
18.691,0.2573,0.0708,0.0865,0.281
18.691,0.2543,0.1118,0.0294,0.279
18.691,0.28,0.1216,0.0151,0.306
18.691,0.2964,0.1314,0.0103,0.324
18.691,0.2462,0.1148,-0.0042,0.272
18.691,0.2346,0.0839,0.0047,0.249
18.691,0.2449,0.0482,0.0684,0.259
18.691,0.2174,0.003,0.0745,0.23
18.691,0.1997,-0.0183,0.0398,0.204
18.691,0.1728,-0.042,0.0552,0.186
18.692,0.1368,-0.0776,0.0393,0.162
18.692,0.1106,-0.1324,0.0642,0.184
18.692,0.0749,-0.1489,0.1034,0.196
18.692,0.0466,-0.1797,0.1451,0.236
18.692,0.0181,-0.177,0.1056,0.207
18.692,-0.0225,-0.1671,0.0805,0.187
18.692,-0.0586,-0.1524,0.053,0.172
18.692,-0.0878,-0.1592,0.0589,0.191
18.692,-0.0815,-0.1587,0.0647,0.19
18.692,-0.0994,-0.1701,0.0875,0.216
18.693,-0.1342,-0.1457,0.1224,0.233
18.693,-0.1381,-0.1333,0.1431,0.239
18.693,-0.1613,-0.1041,0.1593,0.249
18.693,-0.149,-0.0845,0.1302,0.215
18.693,-0.0721,-0.0649,0.1227,0.156
18.693,0.0048,-0.0573,0.0817,0.1
18.693,0.0554,-0.0617,0.0574,0.101
18.693,0.099,-0.0517,0.0428,0.12
18.693,0.083,-0.0179,0.014,0.086
18.693,0.108,0.0014,-0.0269,0.111
18.694,0.1139,-0.0031,-0.0154,0.115
18.694,0.0953,-0.0314,-0.0015,0.1
18.694,0.0578,-0.0238,0.0002,0.063
18.694,0.011,-0.028,0.0137,0.033
18.694,0.012,-0.0441,0.0127,0.047
18.694,-0.0322,-0.0221,0.0283,0.048
18.694,-0.0118,-0.0501,0.0317,0.06
18.694,-0.0461,-0.0517,0.0208,0.072
18.695,-0.0659,-0.0201,0.0383,0.079
18.695,-0.0948,-0.0173,0.0296,0.101
18.695,-0.114,-0.0026,0.0304,0.118
18.695,-0.0903,-0.0118,0.005,0.091
18.695,-0.0856,-0.0043,-0.0059,0.086
18.695,-0.0762,-0.0158,-0.0215,0.081
18.695,-0.0835,-0.0249,-0.0228,0.09
18.695,-0.0763,-0.0221,-0.0145,0.081
18.695,-0.0834,-0.0264,0.0031,0.088
18.695,-0.0784,-0.0378,-0.0029,0.087
18.696,-0.0876,-0.0563,0.0078,0.104
18.696,-0.1037,-0.0557,-0.003,0.118
18.696,-0.1221,-0.0716,-0.0233,0.143
18.696,-0.1308,-0.0803,-0.0413,0.159
18.696,-0.1182,-0.0889,-0.0402,0.153
18.696,-0.1342,-0.1093,-0.0179,0.174
18.696,-0.1217,-0.1176,0.028,0.172
18.696,-0.1213,-0.1496,0.0714,0.205
18.696,-0.1687,-0.1694,0.1028,0.26
18.696,-0.1539,-0.1084,0.1057,0.216
18.697,-0.1511,-0.0314,0.116,0.193
18.697,-0.134,-0.0286,0.0359,0.142
18.697,-0.0814,0.0193,0.0395,0.093
18.697,-0.0554,0.1025,0.0098,0.117
18.697,-0.0534,0.1374,-0.0552,0.157
18.697,-0.049,0.127,-0.0462,0.144
18.697,-0.0234,0.1215,-0.0468,0.132
18.697,0.002,0.0899,-0.0451,0.101
18.697,-0.0297,0.0727,-0.0481,0.092
18.698,-0.0327,0.0652,-0.0701,0.101
18.698,-0.038,0.0507,-0.035,0.072
18.698,-0.0338,0.0245,-0.0334,0.053
18.698,-0.0203,-0.0039,-0.0342,0.04
18.698,-0.0425,-0.0464,-0.0278,0.069
18.698,-0.048,-0.0552,-0.0119,0.074
18.698,-0.0465,-0.0259,0.0277,0.06
18.698,-0.0428,-0.0064,0.0314,0.053
18.698,-0.0486,0.0011,0.0447,0.066
18.698,-0.0235,0.0227,0.053,0.062
18.699,-0.0058,0.0252,0.04,0.048
18.699,-0.0001,0.0728,0.0532,0.09
18.699,0.0174,0.127,0.0616,0.142
18.699,0.0633,0.1643,0.0436,0.181
18.699,0.0828,0.1608,0.002,0.181
18.699,0.0618,0.1717,-0.0274,0.185
18.699,0.0695,0.1634,-0.0424,0.183
18.699,0.1342,0.16,-0.0169,0.21
18.699,0.1679,0.1565,0.0086,0.23
18.699,0.0997,0.1198,-0.0113,0.156
18.7,0.0585,0.0619,-0.0786,0.116
18.7,0.0393,0.0211,-0.0719,0.085
18.7,0.0609,0.021,-0.0675,0.093
18.7,0.0636,-0.0054,-0.0631,0.09
18.7,0.0593,-0.0504,-0.0445,0.09
18.7,0.0077,-0.0999,-0.007,0.1
18.7,-0.0578,-0.149,0.0137,0.16
18.7,-0.118,-0.155,0.039,0.199
18.7,-0.1495,-0.1395,0.0026,0.205
18.7,-0.1857,-0.136,-0.0001,0.23
18.701,-0.2169,-0.1112,-0.0691,0.253
18.701,-0.2314,-0.0937,-0.0996,0.269
18.701,-0.2339,-0.0764,-0.1084,0.269
18.701,-0.227,-0.0639,-0.0935,0.254
18.701,-0.2013,-0.0372,-0.0953,0.226
18.701,-0.1664,-0.0274,-0.0568,0.178
18.701,-0.1224,-0.0366,0.0171,0.129
18.701,-0.1121,-0.0529,0.0405,0.13
18.701,-0.1069,-0.0286,0.078,0.135
18.701,-0.0709,-0.0283,0.0869,0.116
18.702,-0.0259,0.0123,0.0817,0.087
18.702,-0.0025,0.0408,0.0812,0.091
18.702,0.0421,0.0927,0.0736,0.126
18.702,0.046,0.1015,0.0352,0.117
18.702,0.0712,0.1458,0.0256,0.164
18.702,0.0797,0.1423,0.0255,0.165
18.702,0.0976,0.1672,0.0396,0.198
18.702,0.1154,0.1517,0.0416,0.195
18.702,0.1616,0.1243,0.02,0.205
18.702,0.1577,0.1542,0.027,0.222
18.703,0.1445,0.1221,0.0029,0.189
18.703,0.1457,0.057,-0.0021,0.156
18.703,0.154,0.0423,0.0451,0.166
18.703,0.1291,0.004,0.0326,0.133
18.703,0.1542,-0.0245,0.0464,0.163
18.703,0.1199,-0.0504,0.0576,0.142
18.703,0.0597,-0.0571,0.0521,0.098
18.703,0.0214,-0.0637,0.0443,0.08
18.703,-0.0142,-0.0846,0.0247,0.089
18.703,-0.0662,-0.0791,0.003,0.103
18.704,-0.0966,-0.0405,0.0076,0.105
18.704,-0.1101,-0.0163,0.0121,0.112
18.704,-0.1212,-0.047,0.0095,0.13
18.704,-0.1227,-0.0537,0.0115,0.134
18.704,-0.1125,-0.0722,0.0088,0.134
18.704,-0.1262,-0.0833,0.0251,0.153
18.704,-0.0997,-0.092,0.0484,0.144
18.704,-0.1044,-0.1101,0.0693,0.167
18.704,-0.0926,-0.109,0.0664,0.158
18.705,-0.0999,-0.0795,0.0564,0.14
18.705,-0.1003,-0.0241,0.0395,0.11
18.705,-0.0721,-0.0166,0.0442,0.086
18.705,-0.0442,-0.0068,0.037,0.058
18.705,-0.0403,0.0005,0.025,0.047
18.705,-0.0032,0.0363,0.0297,0.047
18.705,0.0193,0.048,0.0464,0.07
18.705,0.0345,0.0383,0.0748,0.091
18.705,0.0806,-0.0046,0.0554,0.098
18.705,0.0931,-0.0044,0.0646,0.113
18.706,0.1008,-0.0066,0.0928,0.137
18.706,0.1014,-0.0041,0.0829,0.131
18.706,0.0902,-0.0087,0.0588,0.108
18.706,0.0816,-0.037,0.0183,0.091
18.706,0.0803,-0.0271,0.0209,0.087
18.706,0.0601,-0.0079,0.0212,0.064
18.706,0.0283,0.023,0.0144,0.039
18.706,-0.0078,0.0489,0.0005,0.05
18.706,-0.0292,0.0296,0.0008,0.042
18.706,-0.0956,0.0127,0.0154,0.098
18.707,-0.095,0.0055,0.006,0.095
18.707,-0.104,0.0078,0.0489,0.115
18.707,-0.1061,0.0221,0.063,0.125
18.707,-0.087,0.0267,0.0745,0.118
18.707,-0.0824,-0.0089,0.0644,0.105
18.707,-0.078,-0.0135,0.0567,0.097
18.707,-0.0287,-0.0203,0.0371,0.051
18.707,0.0274,-0.0294,0.0082,0.041
18.707,0.0688,-0.0099,-0.0231,0.073
18.707,0.0793,-0.0073,0.0004,0.08
18.708,0.097,-0.0308,-0.0189,0.104
18.708,0.0435,-0.021,-0.0334,0.059
18.708,-0.0047,-0.0135,-0.0575,0.059
18.708,-0.0286,-0.0157,-0.0767,0.083
18.708,-0.045,0.0083,-0.0674,0.081
18.708,-0.0518,0.0083,-0.0391,0.065
18.708,-0.0799,0.0036,-0.0088,0.08
18.708,-0.1079,0.0037,0.0357,0.114
18.708,-0.15,-0.0057,0.0585,0.161
18.708,-0.1373,-0.0151,0.1074,0.175
18.709,-0.1248,-0.0362,0.111,0.171
18.709,-0.0653,-0.0381,0.1053,0.13
18.709,-0.0064,-0.0519,0.0952,0.109
18.709,0.0354,-0.0134,0.0853,0.093
18.709,0.0177,-0.0132,0.0544,0.059
18.709,-0.0118,-0.0344,0.0381,0.053
18.709,-0.0172,-0.027,0.0552,0.064
18.709,-0.0555,-0.0813,0.0533,0.112
18.709,-0.1006,-0.057,0.0632,0.132
18.709,-0.1264,-0.028,0.0589,0.142
18.71,-0.14,-0.0017,0.0521,0.149
18.71,-0.1182,0.0007,0.0809,0.143
18.71,-0.1084,0.015,0.0784,0.135
18.71,-0.0276,-0.0017,0.1137,0.117
18.71,0.0264,-0.0182,0.099,0.104
18.71,0.0539,0.0129,0.056,0.079
18.71,0.0621,0.0342,0.0418,0.082
18.71,0.1083,0.0364,0.0278,0.118
18.71,0.1398,0.0361,0.0139,0.145
18.71,0.1664,0.0288,0.0167,0.17
18.711,0.1527,0.0262,0.0289,0.158
18.711,0.0849,0.0544,0.0102,0.101
18.711,0.006,0.0373,-0.0204,0.043
18.711,-0.0152,0.0203,0.0157,0.03
18.711,-0.003,0.0319,0.0112,0.034
18.711,0.0092,0.022,0.0068,0.025
18.711,0.0142,0.0075,0.0261,0.031
18.711,0.0238,-0.0092,0.0215,0.033
18.711,0.0095,-0.0424,0.0311,0.053
18.711,0.0237,-0.0421,0.0406,0.063
18.712,0.0259,-0.0584,0.0476,0.08
18.712,0.0495,-0.0864,0.0284,0.104
18.712,0.0421,-0.0857,0.0045,0.096
18.712,0.0371,-0.0613,-0.0406,0.082
18.712,0.0014,-0.0347,-0.0807,0.088
18.712,-0.0127,-0.025,-0.1324,0.135
18.712,-0.0219,-0.0437,-0.1364,0.145
18.712,-0.0428,-0.0599,-0.1192,0.14
18.712,-0.0472,-0.0784,-0.107,0.141
18.712,-0.073,-0.1085,-0.0475,0.139
18.713,-0.087,-0.1359,-0.017,0.162
18.713,-0.0867,-0.1583,0.0632,0.191
18.713,-0.0819,-0.1521,0.1215,0.211
18.713,-0.0629,-0.1222,0.1534,0.206
18.713,-0.0561,-0.0949,0.1472,0.184
18.713,-0.0659,-0.0632,0.1247,0.155
18.713,-0.0684,-0.0032,0.0739,0.101
18.713,-0.0376,0.0514,0.0189,0.066
18.713,0.0003,0.0819,-0.0049,0.082
18.713,0.0141,0.0932,-0.0215,0.097
18.714,0.0162,0.0972,-0.0119,0.099
18.714,0.0182,0.1083,-0.0144,0.111
18.714,0.0392,0.0909,-0.0097,0.099
18.714,0.0837,0.0997,0.0019,0.13
18.714,0.0804,0.0752,0.0465,0.119
18.714,0.0653,0.0699,0.0434,0.105
18.714,0.0431,0.0623,0.0428,0.087
18.714,0.0401,0.0499,0.0209,0.067
18.714,0.0347,0.0496,0.011,0.062
18.715,0.0128,0.0445,0.0156,0.049
18.715,0.0004,0.0205,0.0011,0.021
18.715,-0.0308,-0.0105,0.0034,0.033
18.715,-0.0214,-0.0174,-0.0135,0.031
18.715,0.0141,-0.0765,0.0505,0.093
18.715,-0.0504,-0.0782,0.0263,0.097
18.715,-0.0763,-0.0941,-0.0166,0.122
18.715,-0.0972,-0.0886,0.0287,0.135
18.715,-0.1275,-0.0783,-0.0094,0.15
18.715,-0.1269,-0.0681,-0.028,0.147
18.716,-0.1311,-0.1102,-0.0132,0.172
18.716,-0.1544,-0.0974,-0.0129,0.183
18.716,-0.1635,-0.0561,-0.0268,0.175
18.716,-0.1632,-0.0365,0.0021,0.167
18.716,-0.1159,-0.0288,0.019,0.121
18.716,-0.1023,-0.0023,0.0217,0.105
18.716,-0.07,0.0098,0.0173,0.073
18.716,-0.0499,0.01,0.0033,0.051
18.716,0.0174,-0.023,0.0226,0.037
18.716,0.0722,0.0107,0.0394,0.083
18.717,0.1267,0.0583,0.03,0.143
18.717,0.1477,0.0842,-0.0268,0.172
18.717,0.1759,0.0955,-0.0311,0.203
18.717,0.19,0.0996,-0.0069,0.215
18.717,0.1614,0.1203,-0.0019,0.201
18.717,0.1216,0.117,0.0053,0.169
18.717,0.0728,0.1137,-0.0113,0.135
18.717,0.0413,0.1555,-0.0064,0.161
18.718,-0.004,0.1565,-0.0159,0.157
18.718,0.0036,0.1409,-0.0182,0.142
18.718,0.0279,0.1183,-0.0156,0.123
18.718,0.0404,0.091,0.0154,0.101
18.718,0.0458,0.0664,0.0082,0.081
18.718,0.0726,-0.0008,0.013,0.074
18.718,0.1493,-0.0366,-0.006,0.154
18.718,-0.7145,0.0751,-0.3173,0.785
18.718,0.0868,-0.0182,0.3758,0.386
18.719,0.8447,-0.4384,0.0982,0.957
18.719,0.4697,-0.1885,-0.0013,0.506
18.719,0.1499,0.0571,-0.0841,0.181
18.719,-2.1491,0.4085,-0.5248,2.25
18.719,-0.0009,-0.1225,0.4175,0.435
18.719,0.5809,-0.5935,0.2723,0.874
18.719,-0.6734,-0.0075,-0.1092,0.682
18.719,0.4455,0.033,0.4445,0.63
18.72,0.8324,-0.3138,-0.118,0.897
18.72,-0.6144,0.0593,-0.6332,0.884
18.72,-0.2236,0.2219,0.3482,0.47
18.72,1.3831,-0.6031,0.0244,1.509
18.72,0.7962,-0.3233,-0.108,0.866
18.72,0.0045,0.2047,-0.16,0.26
18.72,-0.1103,0.1563,-0.1195,0.226
18.72,-0.0528,-0.0092,-0.0075,0.054
18.72,-0.225,-0.0262,0.0663,0.236
18.721,-0.5053,0.1075,0.0395,0.518
18.721,-0.6551,0.1743,0.0845,0.683
18.721,-0.6625,0.1647,0.1512,0.699
18.721,-0.5704,0.1337,0.1486,0.604
18.721,-0.4482,0.1029,0.1104,0.473
18.721,-0.3267,0.1249,0.0483,0.353
18.721,-0.1769,0.1181,0.0557,0.22
18.721,-0.0034,0.0994,0.0584,0.115
18.721,0.1225,0.0544,0.0849,0.159
18.721,0.1984,0.0212,0.0922,0.22
18.722,0.2342,-0.0095,0.1163,0.262
18.722,0.3472,-0.038,0.0902,0.361
18.722,0.3723,-0.0331,0.0809,0.382
18.722,0.3239,-0.0283,0.0215,0.326
18.722,0.2163,0.0075,0.0074,0.217
18.722,0.0828,0.0026,-0.002,0.083
18.722,-0.0648,-0.0071,0.0077,0.066
18.722,-0.1454,0,-0.0042,0.145
18.722,-0.1904,-0.0192,-0.0088,0.192
18.722,-0.1807,-0.0215,-0.0159,0.183
18.723,-0.1021,-0.0453,-0.0014,0.112
18.723,0.0215,-0.0762,-0.018,0.081
18.723,0.1374,-0.1094,-0.0105,0.176
18.723,0.222,-0.1449,-0.07,0.274
18.723,0.3447,-0.1326,-0.0889,0.38
18.723,0.3934,-0.1251,-0.1389,0.436
18.723,0.4187,-0.1153,-0.1532,0.46
18.723,0.3869,-0.0984,-0.1604,0.43
18.723,0.3267,-0.0767,-0.1462,0.366
18.723,0.1999,-0.0336,-0.1177,0.234
18.724,0.0924,-0.0096,-0.0942,0.132
18.724,-0.0056,-0.0096,-0.0707,0.072
18.724,-0.0869,-0.0095,-0.0473,0.099
18.724,-0.1541,-0.007,-0.0119,0.155
18.724,-0.1881,-0.002,-0.022,0.189
18.724,-0.2058,-0.0041,-0.0367,0.209
18.724,-0.2047,-0.0086,-0.0562,0.212
18.724,-0.1632,-0.0202,-0.078,0.182
18.724,-0.1123,-0.0222,-0.1285,0.172
18.725,-0.0782,-0.0218,-0.1025,0.131
18.725,0.0086,-0.0119,-0.0862,0.087
18.725,0.0741,-0.0617,-0.0077,0.097
18.725,0.0776,-0.0829,0.0732,0.135
18.725,0.0695,-0.1137,0.0872,0.159
18.725,0.0522,-0.0848,0.0917,0.135
18.725,0.069,-0.0441,0.0938,0.125
18.725,0.0335,-0.0274,0.1296,0.137
18.725,0.0079,-0.0084,0.1678,0.168
18.725,-0.0151,0.0321,0.2037,0.207
18.726,-0.0692,0.0605,0.2063,0.226
18.726,-0.1352,0.0507,0.209,0.254
18.726,-0.1608,0.0672,0.1858,0.255
18.726,-0.1364,0.1243,0.1674,0.249
18.726,-0.0811,0.112,0.1063,0.174
18.726,0.0336,0.1252,0.0734,0.149
18.726,0.107,0.124,0.0219,0.165
18.726,0.1632,0.1062,-0.0056,0.195
18.726,0.2193,0.0979,-0.0233,0.241
18.726,0.2656,0.0589,-0.0055,0.272
18.727,0.1552,0.0535,-0.0166,0.165
18.727,0.0219,0.0955,0.0221,0.1
18.727,-0.0629,0.1183,-0.0088,0.134
18.727,-0.1256,0.0935,-0.0377,0.161
18.727,-0.1572,0.0666,-0.0765,0.187
18.727,-0.1224,0.0709,-0.0963,0.171
18.727,-0.0812,0.1109,-0.1043,0.173
18.727,-0.0147,0.0913,-0.1196,0.151
18.727,0.0413,0.0387,-0.1397,0.151
18.727,0.1061,-0.0228,-0.148,0.184
18.728,0.1513,-0.0695,-0.1303,0.211
18.728,0.1749,-0.1017,-0.1058,0.228
18.728,0.1843,-0.0932,-0.0508,0.213
18.728,0.1677,-0.1228,-0.0294,0.21
18.728,0.1016,-0.1333,-0.0389,0.172
18.728,0.0479,-0.1223,-0.0269,0.134
18.728,-0.0601,-0.0947,-0.0148,0.113
18.728,-0.0725,-0.0912,-0.0098,0.117
18.728,-0.1229,-0.0686,-0.0119,0.141
18.728,-0.14,-0.0462,-0.047,0.155
18.729,-0.1218,-0.0547,-0.039,0.139
18.729,-0.097,-0.0323,-0.0475,0.113
18.729,-0.0775,-0.048,-0.0582,0.108
18.729,-0.0417,-0.0375,-0.0854,0.102
18.729,0.0056,-0.0626,-0.1099,0.127
18.729,0.0265,-0.0994,-0.1152,0.154
18.729,0.0686,-0.1382,-0.0897,0.179
18.729,0.0893,-0.1554,-0.0621,0.19
18.729,0.0577,-0.1369,-0.0134,0.149
18.729,0.0099,-0.1234,-0.0029,0.124
18.73,-0.0231,-0.136,-0.0021,0.138
18.73,-0.0892,-0.113,0.0059,0.144
18.73,-0.176,-0.0569,0.0375,0.189
18.73,-0.2432,-0.0227,0.0451,0.248
18.73,-0.3099,0.0137,0.062,0.316
18.73,-0.3689,0.0546,0.0503,0.376
18.73,-0.3707,0.0856,0.0861,0.39
18.73,-0.3963,0.0689,0.1051,0.416
18.73,-0.377,0.0524,0.1051,0.395
18.731,-0.2967,0.0504,0.1122,0.321
18.731,-0.222,0.0318,0.0766,0.237
18.731,-0.1103,0.0253,0.0629,0.129
18.731,0.0005,0.0307,0.0326,0.045
18.731,0.0441,0.0075,-0.0022,0.045
18.731,0.1136,0.0012,-0.0558,0.127
18.731,0.1566,-0.0099,-0.0448,0.163
18.731,0.171,-0.0304,-0.0576,0.183
18.731,0.1784,-0.0129,-0.0775,0.195
18.731,0.1694,-0.0002,-0.0688,0.183
18.732,0.1107,0.0028,-0.0792,0.136
18.732,0.0574,0.0248,-0.0729,0.096
18.732,0.0638,0.0038,-0.0739,0.098
18.732,0.0443,-0.0098,-0.0132,0.047
18.732,0.0011,-0.0186,-0.0266,0.032
18.732,-0.0345,-0.0154,0.0406,0.056
18.732,-0.0649,-0.0099,0.0815,0.105
18.732,-0.0571,-0.0211,0.0888,0.108
18.732,-0.0328,-0.037,0.0843,0.098
18.732,0.0174,-0.0172,0.0539,0.059
18.733,0.0668,-0.0258,0.0258,0.076
18.733,0.1492,-0.0202,-0.0065,0.151
18.733,0.1789,-0.0053,-0.0339,0.182
18.733,0.2495,0.0237,-0.0801,0.263
18.733,-0.3351,0.1734,-0.2521,0.454
18.733,-0.4215,0.2128,-0.0433,0.474
18.733,-0.1464,0.0454,0.0265,0.156
18.733,-0.0655,-0.0116,-0.0038,0.067
18.733,0.055,0.0221,0.0259,0.065
18.733,0.3835,-0.0182,0.0414,0.386
18.734,0.6718,-0.0753,-0.086,0.681
18.734,0.7164,-0.025,-0.2347,0.754
18.734,0.6112,0.0109,-0.2904,0.677
18.734,0.5691,-0.0777,-0.2747,0.637
18.734,0.5496,-0.1663,-0.1972,0.607
18.734,0.469,-0.1618,-0.1319,0.513
18.734,0.3487,-0.1646,-0.0882,0.396
18.734,0.2287,-0.0766,-0.066,0.25
18.734,0.1159,-0.0676,-0.0627,0.148
18.735,0.0076,-0.0442,-0.0783,0.09
18.735,-0.0745,-0.0208,-0.077,0.109
18.735,-0.128,-0.0142,-0.0899,0.157
18.735,-0.1143,0.0115,-0.0668,0.133
18.735,-0.1148,-0.0202,-0.0605,0.131
18.735,-0.0028,-0.071,0.0199,0.074
18.735,0.2289,-0.141,0.0766,0.28
18.735,0.4273,-0.1656,0.0786,0.465
18.735,0.442,-0.1066,0.0329,0.456
18.736,0.5813,-0.1123,0.059,0.595
18.736,0.9172,-0.1731,0.09,0.938
18.736,1.2084,-0.191,0.102,1.228
18.736,1.4168,-0.1637,0.0613,1.428
18.736,1.6417,-0.1293,0.0015,1.647
18.736,1.631,-0.0711,-0.126,1.637
18.736,-1.1478,0.5012,-0.8144,1.494
18.736,0.0615,0.239,0.3167,0.401
18.736,0.3427,-0.3411,-0.1266,0.5
18.737,-1.1894,0.2173,-0.1705,1.221
18.737,0.541,0.1012,0.4198,0.692
18.737,0.3092,0.0403,0.0131,0.312
18.737,0.7279,0.1494,0.4159,0.852
18.737,0.3239,0.0001,-1.4752,1.51
18.737,-1.754,0.9965,-0.0198,2.017
18.737,4.4043,-0.7333,1.473,4.702
18.737,5.0866,-1.5089,-0.6918,5.351
18.738,1.2088,0.2591,-1.1485,1.687
18.738,0.0393,1.0243,-0.4459,1.118
18.738,0.6046,0.1276,-0.199,0.649
18.738,0.2654,-0.3142,-0.0768,0.418
18.738,-0.8838,0.0764,-0.0583,0.889
18.738,-1.7835,0.4671,0.036,1.844
18.738,-2.3922,0.6142,0.2524,2.483
18.739,-2.8829,0.745,0.4761,3.015
18.739,-2.9883,0.6588,0.5424,3.108
18.739,-2.6196,0.4037,0.5085,2.699
18.739,-2.116,0.1708,0.4369,2.167
18.739,-1.5627,-0.0615,0.3611,1.605
18.739,-1.0332,-0.2623,0.2456,1.094
18.739,-0.543,-0.3889,0.2004,0.697
18.74,-0.2014,-0.4388,0.1417,0.503
18.74,0.0449,-0.4412,0.0742,0.45
18.74,0.2493,-0.4964,0.0194,0.556
18.74,0.4094,-0.5351,0.001,0.674
18.74,0.4946,-0.5191,0.0022,0.717
18.74,0.517,-0.4533,0.0252,0.688
18.74,0.4119,-0.3807,0.0556,0.564
18.74,0.3104,-0.294,0.0623,0.432
18.74,0.1764,-0.1384,0.141,0.265
18.74,-0.0144,-0.0905,0.1746,0.197
18.741,-0.2385,-0.124,0.1747,0.321
18.741,-0.4248,-0.0426,0.1845,0.465
18.741,-0.5043,0.0985,0.2113,0.556
18.741,-0.4457,0.1703,0.1809,0.51
18.741,-0.409,0.2778,0.1266,0.51
18.741,-0.31,0.3805,0.1076,0.502
18.741,-3.6502,1.203,-0.5917,3.889
18.741,-0.6888,0.4593,0.9693,1.275
18.742,-1.9599,0.0342,-0.4826,2.019
18.742,3.0465,-0.4792,1.8198,3.581
18.742,2.4979,-0.6391,-0.8085,2.702
18.742,0.0338,0.9989,-0.57,1.151
18.742,1.2495,0.6014,-0.0311,1.387
18.742,2.5914,-0.3459,0.0414,2.615
18.742,2.3128,-0.3151,-0.1212,2.337
18.742,1.5736,0.1456,-0.1341,1.586
18.743,1.0088,0.3235,0.0295,1.06
18.743,0.3043,0.3673,0.1259,0.493
18.743,-0.7563,0.5093,0.3452,0.975
18.743,-9.2894,2.3067,-1.6596,9.714
18.743,-2.5773,0.5804,3.1931,4.144
18.743,-0.6475,-1.7375,0.3123,1.88
18.743,-2.3542,-0.3098,0.2342,2.386
18.744,-1.453,0.1608,0.0635,1.463
18.744,-0.8475,0.2463,-0.022,0.883
18.744,5.9599,-1.6099,1.3443,6.318
18.744,4.879,-1.5412,-1.2692,5.272
18.744,2.3656,0.1214,-0.7229,2.477
18.744,3.047,-0.2045,0.0441,3.054
18.744,3.2847,-0.7772,0.3203,3.391
18.744,1.95,-0.6927,0.2056,2.08
18.745,0.2428,-0.1303,0.1162,0.299
18.745,-1.0915,0.2692,0.1464,1.134
18.745,-2.0433,0.5612,0.2178,2.13
18.745,-2.6207,0.6695,0.2541,2.717
18.745,-2.8074,0.5966,0.2835,2.884
18.745,-2.6413,0.3953,0.3226,2.69
18.745,-2.2729,0.1708,0.4167,2.317
18.745,-1.8666,0.0425,0.5111,1.936
18.746,-1.4146,-0.071,0.4313,1.481
18.746,-0.9997,-0.1605,0.3901,1.085
18.746,-0.655,-0.2427,0.2562,0.744
18.746,-0.3681,-0.2555,0.1778,0.482
18.746,-0.1648,-0.2229,0.0352,0.279
18.746,0.0145,-0.1928,-0.0163,0.194
18.746,0.1917,-0.1461,-0.1228,0.271
18.746,0.3193,-0.1307,-0.1264,0.367
18.746,0.4117,-0.1536,-0.135,0.46
18.747,0.4571,-0.2052,-0.0433,0.503
18.747,0.3527,-0.2618,-0.0284,0.44
18.747,0.2848,-0.2896,0.0439,0.409
18.747,0.1885,-0.2911,0.0541,0.351
18.747,0.1738,-0.3071,0.0572,0.357
18.747,0.1592,-0.2442,0.0317,0.293
18.747,0.1969,-0.112,-0.0152,0.227
18.747,0.3185,0.0606,-0.0432,0.327
18.747,0.4066,0.1208,-0.1169,0.44
18.747,0.423,0.1403,-0.117,0.461
18.748,0.3532,0.1742,-0.046,0.396
18.748,0.2524,0.2344,0.0917,0.356
18.748,0.1804,0.3662,0.1119,0.423
18.748,0.1972,0.5121,0.1992,0.584
18.748,0.1761,0.4595,0.15,0.514
18.748,0.1292,0.4594,0.1845,0.512
18.748,0.0206,0.4329,0.1115,0.448
18.748,0.0201,0.3849,0.0385,0.387
18.748,0.0848,0.3847,0.0347,0.395
18.748,0.1239,0.3987,0.0189,0.418
18.748,0.1207,0.3504,0.0317,0.372
18.749,-0.1765,0.0943,-0.1422,0.245
18.749,-0.2396,-0.1709,-0.0578,0.3
18.749,-0.2604,-0.2948,0.0195,0.394
18.749,-0.0953,-0.3251,0.0109,0.339
18.749,0.0407,-0.2575,-0.0284,0.262
18.749,0.1767,-0.1972,-0.034,0.267
18.749,0.1956,-0.1178,-0.0062,0.228
18.749,0.1432,-0.0171,-0.0359,0.149
18.749,0.0365,0.038,-0.025,0.058
18.75,-0.1083,0.0404,-0.1292,0.173
18.75,-0.105,-0.0168,-0.0735,0.129
18.75,-0.109,0.0289,0.0254,0.116
18.75,-0.1369,0.072,0.0145,0.155
18.75,-0.2152,-0.0019,-0.0395,0.219
18.75,-0.1333,-0.0184,0.0047,0.135
18.75,-0.0968,-0.011,0.0801,0.126
18.75,-0.0507,-0.0204,0.1794,0.188
18.75,-0.0115,0.0107,0.231,0.231
18.75,0.047,-0.0013,0.2013,0.207
18.751,0.0963,0.0273,0.2198,0.241
18.751,0.079,0.0797,0.1834,0.215
18.751,0.1029,0.1223,0.2406,0.289
18.751,0.0723,0.1742,0.236,0.302
18.751,0.0542,0.1328,0.2077,0.252
18.751,0.0294,0.1224,0.2012,0.237
18.751,0.0719,0.0808,0.1424,0.179
18.751,0.1408,0.0798,0.1484,0.22
18.751,0.1862,0.0955,0.1189,0.241
18.752,0.2799,0.1014,0.1376,0.328
18.752,0.3,0.155,0.068,0.344
18.752,0.3471,0.1749,0.0418,0.391
18.752,0.3327,0.1445,0.0564,0.367
18.752,0.2664,0.1044,0.1117,0.307
18.752,0.2222,0.026,0.1051,0.247
18.752,0.1807,-0.0285,0.0629,0.193
18.752,0.2305,-0.0184,0.1118,0.257
18.752,0.2159,-0.0252,0.0509,0.223
18.752,0.283,-0.0368,0.0475,0.289
18.752,0.2975,-0.0603,0.0083,0.304
18.753,0.2978,-0.1029,0.0169,0.316
18.753,0.2528,-0.1862,0.0088,0.314
18.753,0.1289,-0.2,-0.0256,0.239
18.753,0.1247,-0.2687,0.0263,0.297
18.753,0.0197,-0.3086,0.0063,0.309
18.753,0.0967,-0.4369,0.1196,0.463
18.753,-0.4129,-0.5005,0.4226,0.774
18.753,-0.135,-0.4471,0.181,0.501
18.753,-0.0922,-0.4463,-0.0887,0.464
18.754,-0.2718,-0.5838,0.0415,0.645
18.754,-1.3029,-0.7022,0.7323,1.651
18.754,-0.2545,-0.3258,-0.0597,0.418
18.754,-1.1689,-0.3416,0.7467,1.428
18.754,-0.4439,0.1015,-0.1417,0.477
18.754,-0.4937,0.3938,0.2696,0.687
18.754,-0.149,0.6861,-0.0219,0.702
18.754,0.4972,0.9137,-0.2989,1.082
18.755,0.8558,0.7325,-0.4376,1.208
18.755,0.8137,0.4846,-0.2907,0.991
18.755,1.0624,0.4495,-0.0306,1.154
18.755,1.1945,0.5799,0.1594,1.337
18.755,1.0575,0.5292,-0.2067,1.2
18.755,1.413,-0.1549,-0.7395,1.602
18.755,1.4172,-0.5637,-0.4934,1.603
18.755,1.2692,-0.5156,-0.3224,1.407
18.755,0.907,-0.374,-0.2594,1.015
18.755,0.7383,-0.1677,-0.1581,0.773
18.756,0.6921,-0.1931,-0.1094,0.727
18.756,0.595,-0.2995,-0.1683,0.687
18.756,0.2703,-0.2671,-0.3303,0.504
18.756,-0.1866,-0.1317,-0.4928,0.543
18.756,-2.5129,0.4652,2.984,3.929
18.756,-6.7298,0.4267,6.5415,9.395
18.756,-4.6745,-0.7126,0.7305,4.785
18.757,-2.6707,-1.4201,-1.7033,3.471
18.757,-1.0873,-1.7064,-2.2496,3.026
18.757,-0.1761,-1.5555,-2.0288,2.563
18.757,0.4644,-1.214,-1.641,2.093
18.757,0.6798,-1.0811,-1.4712,1.948
18.757,0.2642,-1.3019,-1.4147,1.941
18.757,-0.1887,-0.9125,-1.1581,1.486
18.757,1.5572,-0.6197,-0.9182,1.911
18.758,1.8225,-0.581,-0.7481,2.054
18.758,1.6119,-0.5374,-1.0029,1.973
18.758,1.0735,0.0824,-1.0916,1.533
18.758,0.5168,0.5729,-1.2719,1.488
18.758,-0.6924,0.5829,-0.2683,0.944
18.758,0.2316,0.5471,0.6316,0.867
18.758,1.3828,0.3029,0.4637,1.49
18.758,1.977,0.3165,-0.6684,2.111
18.758,1.1888,0.5854,0.4738,1.407
18.759,0.638,0.6436,0.3513,0.972
18.759,0.2265,0.3885,0.8328,0.946
18.759,0.1891,0.2147,1.0136,1.053
18.759,-0.1152,0.1152,1.269,1.279
18.759,-0.9561,0.9383,1.2941,1.863
18.759,-0.6601,1.1221,1.2337,1.794
18.759,0.0429,1.1166,0.6908,1.314
18.759,0.1253,1.2518,0.6652,1.423
18.759,0.0371,1.4652,0.6881,1.619
18.76,-0.1068,1.2598,0.6256,1.411
18.76,-0.1703,0.9516,0.5443,1.109
18.76,-0.2808,0.6819,0.4826,0.881
18.76,-0.4507,0.367,0.4809,0.754
18.76,-0.6135,0.031,0.3936,0.73
18.76,-0.6427,-0.3619,0.1489,0.752
18.76,-0.5843,-0.6991,-0.143,0.922
18.76,-0.6563,-0.8351,-0.262,1.094
18.76,-0.8089,-0.8104,-0.1698,1.158
18.761,-0.6668,-0.7735,-0.2541,1.052
18.761,-0.3636,-0.8105,-0.5223,1.031
18.761,-0.004,-0.8927,-0.8386,1.225
18.761,0.2451,-0.903,-1.012,1.378
18.761,0.4174,-0.7865,-1.0475,1.375
18.761,0.5924,-0.6176,-1.1535,1.436
18.761,0.8496,-0.4704,-1.33,1.647
18.762,1.22,-0.1586,-1.5007,1.941
18.762,1.4698,0.2268,-1.8955,2.409
18.762,0.437,0.3273,-0.6682,0.863
18.762,0.4575,0.3224,-0.3821,0.678
18.762,-0.9927,0.5374,1.9822,2.281
18.762,-0.4724,0.568,1.8815,2.021
18.762,0.253,0.7728,0.7022,1.074
18.762,1.5841,0.6951,-1.3942,2.222
18.763,5.3068,-0.5392,-8.0472,9.655
18.763,4.171,-1.4079,-9.3955,10.376
18.763,0.106,-0.7662,-4.8793,4.94
18.763,-2.6552,-0.7191,-1.5502,3.158
18.763,-6.9537,-0.005,5.4273,8.821
18.763,-7.6946,0.9197,22.447,23.747
18.764,0.9748,0.1379,9.4107,9.462
18.764,1.5648,0.8854,1.6458,2.437
18.764,1.5824,1.1009,-2.0256,2.796
18.764,2.8983,-0.2133,-6.3228,6.959
18.764,0.8824,0.6496,-6.7163,6.805
18.765,-0.4583,0.9435,-5.1329,5.239
18.765,-2.7034,1.0792,1.2324,3.161
18.765,-1.0922,0.1476,8.118,8.192
18.765,1.0779,-0.411,3.8103,3.981
18.765,0.5878,0.0392,1.2107,1.346
18.765,0.9268,0.3048,-0.6975,1.199
18.765,1.1313,0.3812,-1.5495,1.956
18.766,0.9199,0.1733,-1.0012,1.371
18.766,0.6134,-0.2827,-0.1132,0.685
18.766,0.2876,-0.609,0.0849,0.679
18.766,-0.1421,-0.5618,-0.1113,0.59
18.766,-0.5135,-0.2204,-0.3449,0.657
18.766,-0.5366,-0.0417,-0.4967,0.732
18.766,-0.2178,-0.0998,-0.5053,0.559
18.766,0.0704,-0.2393,-0.3346,0.417
18.766,0.1843,-0.2855,-0.2284,0.409
18.766,0.0043,-0.1095,-0.0863,0.139
18.767,0.0109,-0.046,-0.1114,0.121
18.767,0.0674,0.0796,-0.1485,0.181
18.767,0.054,0.1717,-0.1953,0.266
18.767,0.1481,0.1993,-0.2999,0.389
18.767,0.2588,0.1766,-0.3761,0.49
18.767,0.2978,0.1445,-0.3427,0.476
18.767,0.172,0.1267,-0.2596,0.336
18.767,0.1086,0.0469,-0.196,0.229
18.767,-0.0122,-0.0233,-0.209,0.211
18.768,-0.0712,-0.0765,-0.3058,0.323
18.768,-0.1904,-0.1367,-0.3739,0.441
18.768,-0.3101,-0.2182,-0.38,0.537
18.768,-0.3156,-0.2828,-0.3361,0.541
18.768,-0.2212,-0.3041,-0.297,0.479
18.768,-0.2255,-0.2273,-0.2988,0.438
18.768,-0.1848,0.043,-0.2673,0.328
18.768,0.1287,-0.2032,-0.3102,0.392
18.768,0.1432,-0.1026,-0.1883,0.258
18.768,0.1577,0.0146,-0.0906,0.182
18.769,0.2033,0.1389,0.0453,0.25
18.769,0.2517,0.1721,0.0519,0.309
18.769,0.1786,0.1239,0.0272,0.219
18.769,0.0297,0.047,-0.0049,0.056
18.769,-0.0636,0.0084,-0.0083,0.065
18.769,-0.1876,0.0104,0.0624,0.198
18.769,-0.2972,-0.0067,0.1286,0.324
18.769,-0.3686,-0.0262,0.152,0.4
18.769,-0.4143,-0.0504,0.1374,0.439
18.769,-0.3671,0.1621,0.1468,0.427
18.77,-0.2507,-0.2948,0.0966,0.399
18.77,-0.3433,-0.0627,0.1064,0.365
18.77,-0.1138,-0.0124,0.0758,0.137
18.77,-0.012,0.0427,0.1816,0.187
18.77,0.1015,0.0451,0.1991,0.228
18.77,0.2435,0.0309,0.1472,0.286
18.77,0.3354,0.0381,0.0882,0.349
18.77,0.275,0.1718,0.0601,0.33
18.77,0.57,-0.0246,-0.04,0.572
18.77,0.3946,-0.092,0.0201,0.406
18.771,0.0665,-0.0397,0.018,0.08
18.771,0.0017,-0.0759,0.0016,0.076
18.771,-0.118,-0.0022,0.0448,0.126
18.771,-0.2665,0.0213,0.0595,0.274
18.771,-0.3986,-0.0125,0.0313,0.4
18.771,-0.5455,0.0327,0.032,0.547
18.771,-0.5422,0.0947,0.0063,0.55
18.771,-0.4366,0.1256,-0.0051,0.454
18.771,-0.3123,0.1733,-0.0572,0.362
18.771,-0.2479,0.1708,-0.0568,0.306
18.772,-0.0329,0.1133,0.0129,0.119
18.772,0.158,0.0725,0.0252,0.176
18.772,0.1768,0.0318,-0.0128,0.18
18.772,0.1933,-0.0639,-0.0819,0.219
18.772,0.2504,-0.1451,-0.1366,0.32
18.772,0.305,-0.1975,-0.1937,0.412
18.772,0.3282,-0.2067,-0.2339,0.453
18.772,0.2603,-0.1992,-0.267,0.423
18.772,0.123,-0.1295,-0.2906,0.341
18.772,0.2656,-0.0551,-0.2616,0.377
18.773,0.5781,-0.0287,-0.1923,0.61
18.773,0.6277,0.0168,-0.2096,0.662
18.773,0.5581,0.0431,-0.2009,0.595
18.773,0.635,0.0047,-0.1376,0.65
18.773,0.7725,-0.048,-0.1224,0.784
18.773,0.8728,-0.0627,-0.1217,0.884
18.773,0.8835,-0.0489,-0.0927,0.89
18.773,0.802,0.0101,-0.0327,0.803
18.773,0.6901,0.0666,-0.0254,0.694
18.774,-0.0735,0.24,-0.2888,0.383
18.774,-1.5226,0.5879,-0.1649,1.64
18.774,-3.2897,0.603,-0.4855,3.38
18.774,-1.3145,-0.2233,0.3497,1.378
18.774,-1.1167,-0.1043,0.2982,1.161
18.774,3.9429,-0.8094,1.2755,4.222
18.775,-1.0874,0.1409,-0.8213,1.37
18.775,-1.5785,0.1394,-0.1977,1.597
18.775,1.2713,-0.3235,0.5056,1.406
18.775,2.3197,-0.3463,0.2805,2.362
18.775,1.5597,-0.1328,-0.0621,1.567
18.775,1.1203,-0.013,-0.0866,1.124
18.775,-3.4322,1.0193,-1.4003,3.844
18.775,-4.2689,0.9627,-0.4577,4.4
18.776,-1.2938,0.129,0.3945,1.359
18.776,-0.4585,-0.1229,0.0525,0.478
18.776,-1.3494,0.0585,-0.0529,1.352
18.776,-2.3433,0.2689,-0.0046,2.359
18.776,-1.49,0.169,0.4752,1.573
18.776,-0.1267,0.0002,0.6351,0.648
18.776,0.2365,-0.0366,0.5512,0.601
18.776,0.491,-0.1186,0.4577,0.682
18.777,0.4611,-0.1122,0.3645,0.598
18.777,0.6546,-0.1849,0.2815,0.736
18.777,1.1656,-0.3822,0.2422,1.25
18.777,0.9395,-0.4506,0.1291,1.05
18.777,1.11,-0.5695,0.0736,1.25
18.777,0.6869,-0.514,-0.0727,0.861
18.777,0.5355,-0.4541,-0.128,0.714
18.777,0.7437,-0.4398,-0.1548,0.878
18.777,0.6271,-0.33,-0.2011,0.737
18.777,0.8,-0.1557,-0.1979,0.839
18.778,0.4703,0.126,-0.1902,0.523
18.778,0.3223,0.3214,-0.1831,0.491
18.778,0.6765,0.2658,-0.1146,0.736
18.778,0.6597,0.4827,-0.0468,0.819
18.778,0.1697,0.6133,-0.0677,0.64
18.778,2.8468,0.2348,0.5398,2.907
18.778,-0.7763,0.6718,-0.4156,1.108
18.778,-0.4324,0.4892,0.1815,0.678
18.778,1.1116,0.0054,0.511,1.223
18.779,0.0999,-0.0739,-0.0589,0.138
18.779,-0.6113,-0.139,0.0005,0.627
18.779,-0.5163,-0.2637,-0.0686,0.584
18.779,-0.659,-0.2926,0.0853,0.726
18.779,0.1558,-0.4168,-0.0024,0.445
18.779,-0.8284,-0.3639,-0.0541,0.906
18.779,-0.4738,-0.3899,0.2533,0.664
18.779,0.0928,-0.3441,-0.0207,0.357
18.779,1.1554,-0.4201,0.3675,1.283
18.779,-1.1483,0.0656,-0.2843,1.185
18.78,2.5066,-0.477,0.5251,2.605
18.78,0.5406,0.1881,-0.362,0.677
18.78,-0.0864,0.1426,-0.0844,0.187
18.78,0.7731,-0.0562,0.1257,0.785
18.78,0.6682,0.0317,-0.1622,0.688
18.78,0.4242,0.0117,-0.1707,0.457
