time,ax,ay,az,aT
0.008,-0.6386,0.005,-0.5172,0.822
0.008,-0.6824,0.0633,-0.5822,0.899
0.009,-0.7394,0.1145,-0.5568,0.933
0.009,-0.8075,0.1581,-0.4296,0.928
0.012,-0.7779,0.1822,-0.275,0.845
0.017,-0.5741,0.1337,-0.0905,0.596
0.022,0.1479,0.2085,0.0331,0.258
0.027,-0.1417,0.1078,0.0594,0.188
0.032,-0.6423,-0.0662,-0.3323,0.726
0.037,-0.6847,-0.0121,-0.4627,0.826
0.042,-0.4435,0.0705,-0.1755,0.482
0.046,-0.038,0.0347,0.0402,0.065
0.052,0.2517,-0.1171,-0.0581,0.284
0.057,0.2277,-0.1374,-0.246,0.362
0.061,0.0158,-0.0192,-0.2671,0.268
0.066,-0.1845,0.1319,-0.2216,0.317
0.072,-0.2976,0.2024,-0.1352,0.384
0.079,-0.3194,0.1946,-0.051,0.377
0.08,-0.1911,0.1102,0.0432,0.225
0.085,0.0681,0.0113,0.0329,0.076
0.09,0.3245,-0.037,-0.0722,0.335
0.095,0.4668,-0.0203,-0.1065,0.479
0.099,0.4413,0.019,0.0153,0.442
0.104,0.2579,0.0639,0.1688,0.315
0.11,0.1619,0.0164,0.2438,0.293
0.114,1.3837,-0.8611,0.4046,1.679
0.12,0.3306,-0.5778,0.9682,1.175
0.125,-0.092,0.063,-0.176,0.208
0.131,-0.2025,0.8827,-0.697,1.143
0.135,0.0658,1.0756,-0.7395,1.307
0.14,0.1377,0.7338,-0.4281,0.861
0.144,0.1796,0.286,-0.0674,0.344
0.148,0.451,-0.0799,0.0415,0.46
0.153,0.5375,-0.1997,0.1644,0.597
0.161,0.5951,-0.2949,0.1869,0.69
0.163,0.4361,-0.1822,0.4193,0.632
0.168,0.3782,-0.1284,0.5288,0.663
0.172,0.2813,-0.0553,0.4338,0.52
0.177,0.227,-0.0056,0.2734,0.355
0.182,0.2536,0.1717,0.0692,0.314
0.187,0.1907,0.5364,-0.0425,0.571
0.192,0.2656,0.9331,-0.1839,0.987
0.197,0.2154,1.4165,-0.3265,1.469
0.201,0.2758,1.719,-0.5541,1.827
0.206,0.5133,1.8219,-0.6135,1.99
0.212,0.6814,1.7541,-0.5239,1.953
0.216,0.8381,1.4651,-0.3355,1.721
0.221,1.0068,1.1794,0.0472,1.551
0.226,1.0793,0.9739,0.4686,1.527
0.23,1.1334,0.8619,0.6728,1.575
0.235,1.2972,0.6756,0.6649,1.607
0.24,1.4989,0.3795,0.5721,1.649
0.245,1.5899,0.0227,0.6166,1.705
0.25,1.4402,-0.1859,0.8387,1.677
0.254,1.1918,-0.38,1.1093,1.672
0.263,0.9664,-0.5812,1.2416,1.677
0.265,0.7706,-0.7595,1.2263,1.635
0.269,0.5983,-0.8746,1.1449,1.56
0.275,0.404,-0.8768,0.9306,1.341
0.279,0.1855,-0.7722,0.6073,1
0.284,0.0509,-0.6241,0.1249,0.638
0.288,0.0001,-0.4393,-0.4832,0.653
0.294,0.036,-0.3239,-0.9634,1.017
0.298,-0.0705,-0.1286,-1.2398,1.248
0.303,-0.3192,0.2125,-1.3292,1.383
0.308,-0.4773,0.6764,-1.2536,1.502
0.313,-0.506,1.1305,-1.1041,1.659
0.318,-0.337,1.4434,-0.7994,1.684
0.322,-0.0022,1.5187,-0.3972,1.57
0.328,0.2836,1.3426,0.0428,1.373
0.332,0.4389,1.0137,0.3889,1.171
0.337,0.5351,0.7208,0.7202,1.151
0.342,0.5821,0.5045,0.941,1.216
0.347,0.7564,0.3965,1.0894,1.384
0.351,0.9829,0.4053,1.07,1.508
0.356,1.1037,0.53,1.0382,1.605
0.363,1.0586,0.6277,1.0228,1.6
0.366,0.9597,0.6155,0.9378,1.476
0.371,0.8614,0.425,0.831,1.27
0.376,0.7703,0.2081,0.8531,1.168
0.381,0.5712,0.0048,0.851,1.025
0.385,0.3522,-0.1973,0.7293,0.834
0.39,0.134,-0.4084,0.5744,0.717
0.396,-0.1882,-0.5379,0.3507,0.669
0.4,-0.634,-0.5751,0.1759,0.874
0.405,-1.0395,-0.5488,0.0453,1.176
0.41,-0.8482,-0.4994,-0.2013,1.005
0.415,-0.5383,-0.4706,-0.3007,0.776
0.419,-0.4468,-0.371,-0.2433,0.63
0.425,-0.3584,-0.1373,-0.1203,0.402
0.429,-0.3144,0.1354,-0.0034,0.342
0.434,-0.2302,0.2009,-0.0433,0.309
0.439,-0.053,0.1319,-0.142,0.201
0.445,0.1213,-0.0243,-0.2088,0.243
0.448,0.4079,-0.2057,-0.251,0.521
0.453,0.6617,-0.4056,-0.3216,0.84
0.463,0.663,-0.4258,-0.428,0.897
0.463,0.4013,-0.2933,-0.532,0.728
0.468,0.0913,-0.0825,-0.708,0.719
0.473,-0.0407,0.0802,-1.0326,1.036
0.478,0.0486,0.153,-1.3196,1.329
0.482,0.1366,0.1061,-1.481,1.491
0.488,0.0797,-0.0029,-1.4476,1.45
0.495,0.0811,-0.0256,-1.2914,1.294
0.498,0.0101,-0.1344,-0.9884,0.998
0.502,-0.1206,-0.2692,-0.6076,0.675
0.507,-0.3406,-0.2656,-0.2871,0.519
0.513,-0.5711,-0.1865,-0.0648,0.604
0.517,-0.6606,-0.2092,0.0048,0.693
0.521,-0.7399,-0.1449,0.032,0.755
0.528,-0.8677,-0.1034,0.0552,0.876
0.532,-0.9178,-0.113,0.0148,0.925
0.537,-0.8898,-0.0903,-0.0487,0.896
0.541,-0.7757,0.0482,-0.0467,0.779
0.546,-0.6108,0.2955,0.0874,0.684
0.551,-0.3319,0.4956,0.1958,0.628
0.555,-0.1009,0.5643,0.3332,0.663
0.572,-0.133,1.0316,0.4851,1.148
0.573,-0.248,1.4757,0.7205,1.661
0.573,-0.0747,1.2458,0.6354,1.401
0.595,0.1482,0.8364,0.3283,0.911
0.596,0.0556,0.3683,0.2127,0.429
0.596,0.0735,-0.0001,0.1429,0.161
0.596,0.0031,-0.087,0.1738,0.194
0.597,-0.1005,-0.1017,0.1239,0.189
0.599,-0.3946,-0.0851,0.0579,0.408
0.605,-0.7985,0.0035,0.0381,0.799
0.61,-1.0595,0.1189,0.1504,1.077
0.614,-1.1588,0.2247,0.2857,1.214
0.62,-1.0185,0.2661,0.4607,1.149
0.623,-0.7817,0.1666,0.5893,0.993
0.629,-0.6104,-0.2405,0.6138,0.898
0.633,-0.5186,-0.8235,0.6035,1.145
0.638,-0.3822,-1.4459,0.5061,1.579
0.644,-0.1383,-1.8012,0.2018,1.818
0.649,0.1423,-1.8126,-0.2312,1.833
0.657,0.2489,-1.5156,-0.6675,1.675
0.658,0.1433,-0.9346,-1.1054,1.455
0.67,-0.002,-0.3574,-1.4478,1.491
0.671,-0.114,0.0314,-1.5803,1.585
0.673,-0.357,0.1283,-1.4173,1.467
0.687,-0.5872,-0.0574,-0.906,1.081
0.688,-0.782,-0.3699,-0.2153,0.891
0.688,-0.8969,-0.4651,0.3662,1.075
0.692,-0.9372,-0.4122,0.8752,1.347
0.697,-0.8742,-0.2472,1.2122,1.515
0.702,-0.7077,-0.2117,1.4281,1.608
0.707,-0.6245,-0.0477,1.3848,1.52
0.711,-0.7168,-0.2215,1.6868,1.846
0.715,-0.537,-0.3554,1.9021,2.008
0.72,-0.2881,-0.0247,1.5408,1.568
0.726,-0.2629,-0.3566,1.7094,1.766
0.73,-0.2636,-0.2364,1.4682,1.51
0.735,-0.4668,0.0371,1.1236,1.217
0.74,-0.6424,0.3144,0.7158,1.012
0.747,-0.5198,0.6543,-0.284,0.883
0.75,-0.7742,0.6104,0.3357,1.042
0.755,-0.4325,-0.5669,1.2417,1.432
0.777,-0.3272,-0.7067,1.5129,1.702
0.78,-0.3116,-0.5596,0.921,1.122
0.78,-0.4111,-0.8149,1.0093,1.361
0.781,-0.0083,-1.0583,0.2981,1.1
0.781,0.4403,-0.8777,-0.9836,1.39
0.785,0.6872,-0.6145,-1.2898,1.585
0.788,0.8197,-0.8353,-1.1744,1.658
0.798,0.6107,-0.8845,-0.7241,1.296
0.798,0.2563,-0.8748,-0.2274,0.94
0.803,-0.1328,-0.7369,0.2909,0.803
0.809,-0.4891,-0.5665,0.7798,1.081
0.812,-0.7539,-0.3232,1.0663,1.345
0.819,-0.9103,-0.1511,1.2209,1.53
0.823,-0.9563,-0.0315,1.0603,1.428
0.831,-0.9005,0.0307,0.6443,1.108
0.832,-0.7962,0.0524,0.1969,0.822
0.837,-0.6295,0.0368,-0.194,0.66
0.843,-0.4223,0.0032,-0.5227,0.672
0.847,-0.2367,-0.0931,-0.6707,0.717
0.851,-0.187,-0.1208,-0.5835,0.625
0.856,-0.4098,-0.2092,-0.407,0.614
0.861,-0.7339,-0.2156,-0.2767,0.813
0.866,-0.7136,-0.1739,-0.3138,0.799
0.87,-0.617,-0.1199,-0.432,0.763
0.893,-0.4112,-0.135,-0.448,0.623
0.894,-0.1878,-0.3596,-0.5494,0.683
0.894,-0.2014,-0.561,-0.5815,0.833
0.897,-0.5172,-1.0427,-0.3408,1.213
0.897,-1.5328,-1.3794,-1.2466,2.41
0.9,-0.9992,-0.8712,-2.9227,3.209
0.904,0.6764,-2.1117,-2.237,3.15
0.913,1.0462,-3.0259,-0.2462,3.211
0.921,1.2961,-3.2304,1.3921,3.749
0.922,0.8656,-2.3726,2.208,3.355
0.924,0.452,-1.2901,2.3363,2.707
0.929,-0.1925,-0.4472,1.8122,1.876
0.934,-0.5436,-0.0473,1.0107,1.149
0.938,-0.5739,-0.1252,0.337,0.677
0.945,-0.6901,-0.3281,0.0384,0.765
0.949,-0.7343,-0.4958,0.0514,0.887
0.952,-0.6993,-0.5107,0.2248,0.895
0.958,-0.5806,-0.3731,0.4368,0.817
0.965,-0.3902,-0.1862,0.5581,0.706
0.967,-0.3111,0.0518,0.5958,0.674
0.972,-0.4559,0.2739,0.6781,0.862
0.982,-0.6152,0.3414,0.6969,0.99
0.983,-0.6275,0.3388,0.631,0.952
0.986,-0.6488,0.3894,0.62,0.978
0.991,-0.7184,0.4936,0.6115,1.065
0.998,-0.7671,0.5898,0.5503,1.113
1.002,-0.7788,0.6042,0.3939,1.061
1.007,-0.791,0.6735,0.2789,1.076
1.011,-0.8357,0.7573,0.2108,1.147
1.016,-0.8978,0.7955,0.1199,1.205
1.02,-0.9259,0.824,0.0869,1.242
1.027,-0.8738,0.8588,0.0653,1.227
1.03,-0.7426,0.887,-0.0409,1.158
1.035,-0.5905,0.9845,-0.2573,1.176
1.04,-0.5303,1.1819,-0.6646,1.456
1.048,-0.5304,1.4083,-1.1125,1.871
1.051,-0.4105,1.554,-1.457,2.169
1.055,-0.2327,1.4949,-1.6016,2.203
1.065,0.0806,1.3832,-1.4964,2.039
1.067,0.5432,1.1897,-1.2541,1.812
1.07,0.854,0.9422,-1.1133,1.69
1.075,0.8712,0.6931,-0.997,1.494
1.086,0.663,0.5115,-0.9234,1.247
1.088,0.4016,0.3764,-0.9367,1.086
1.09,-0.1407,0.0725,-0.9801,0.993
1.095,-1.1773,-0.4715,-0.2776,1.298
1.102,-2.3159,-0.5494,1.5003,2.814
1.104,-2.7293,-0.3773,2.1068,3.468
1.11,-2.1963,-0.3778,1.2665,2.563
1.119,-1.1785,-0.6822,0.0095,1.362
1.12,-0.2504,-1.067,-0.6697,1.284
1.124,0.069,-1.2644,-0.7682,1.481
1.129,0.0144,-1.237,-0.4144,1.305
1.135,0.0818,-1.0987,0.159,1.113
1.137,0.2404,-0.9412,0.5898,1.136
1.142,0.3583,-0.7793,0.7361,1.13
1.147,0.3527,-0.6436,0.5921,0.943
1.151,0.3093,-0.2874,0.0674,0.428
1.157,0.2471,0.5272,-1.1261,1.268
1.165,0.3124,0.4857,-1.0323,1.183
1.166,0.321,0.3666,-0.5936,0.768
1.171,0.4028,0.2794,-0.2753,0.562
1.179,0.6293,0.4701,-0.2301,0.819
1.182,0.891,0.8526,-0.3576,1.284
1.186,1.0149,1.2752,-0.7067,1.776
1.191,0.9727,1.475,-1.0187,2.039
1.197,0.8137,1.3538,-0.9653,1.851
1.201,0.6633,1.1958,-0.9625,1.672
1.205,0.4,1.031,-1.0141,1.5
1.211,0.7225,1.2069,-1.3058,1.919
1.216,0.6646,1.007,-1.1252,1.65
1.219,-0.0832,0.7151,-0.4251,0.836
1.224,-0.6052,0.2414,0.3405,0.735
1.23,-1.2031,-0.3063,2.0424,2.39
1.234,-1.8305,-0.4723,3.012,3.556
1.24,-1.9731,-0.5831,3.6308,4.173
1.246,-1.8138,-0.625,3.6708,4.142
1.249,-1.0595,-0.5899,2.3125,2.611
1.254,0.0751,-0.8168,0.9295,1.24
1.258,0.9145,-1.137,0.1446,1.466
1.273,1.3311,-1.2535,-0.0309,1.829
1.274,1.3526,-1.2814,0.2824,1.884
1.276,1.1401,-1.2261,0.9224,1.912
1.303,1.182,-1.1005,1.4062,2.141
1.304,1.1121,-0.8763,1.3435,1.952
1.305,1.0815,-0.6272,1.0766,1.65
1.305,1.1126,-0.4505,0.863,1.478
1.306,1.0814,-0.3094,0.7764,1.367
1.306,0.8974,-0.177,0.635,1.113
1.307,0.5462,0.0293,0.5244,0.758
1.313,0.1685,0.2202,0.5067,0.578
1.317,-0.146,0.3923,0.4769,0.635
1.321,-0.3963,0.5392,0.4832,0.825
1.327,-0.5691,0.6694,0.3966,0.964
1.331,-0.8277,0.7957,0.2819,1.182
1.337,-0.9954,0.8303,0.2942,1.329
1.341,-0.9271,0.7933,0.1346,1.228
1.347,-0.73,0.7444,-0.1921,1.06
1.35,-0.5824,0.6434,-0.297,0.917
1.354,-0.4755,0.5421,-0.1165,0.73
1.376,-0.3753,0.3729,0.1388,0.547
1.377,-0.268,0.2421,0.2974,0.468
1.378,-0.1762,0.1175,0.2981,0.366
1.378,-0.0236,0.0033,0.297,0.298
1.384,0.0205,-0.0538,0.3727,0.377
1.385,-0.1081,-0.1525,0.6666,0.692
1.389,-0.1281,-0.2268,0.7631,0.806
1.403,-0.0106,-0.2584,0.5385,0.597
1.404,0.0454,-0.1906,0.3101,0.367
1.404,-0.142,-0.0357,0.2586,0.297
1.409,-0.4433,0.1438,0.3002,0.554
1.415,-0.7953,0.3107,0.2081,0.879
1.419,-1.1082,0.4734,0.0377,1.206
1.423,-1.2965,0.6335,-0.2996,1.474
1.428,-1.4419,0.7303,-0.4742,1.684
1.434,-1.584,0.734,-0.6223,1.853
1.438,-1.5732,0.7008,-0.622,1.831
1.443,-1.5201,0.6951,-0.5712,1.766
1.447,-1.448,0.6182,-0.63,1.696
1.453,-2.663,0.6028,-1.1715,2.971
1.457,-4.4455,0.2228,-1.3804,4.66
1.479,-1.6361,0.0657,-0.4382,1.695
1.48,-0.5564,-0.0477,-0.3984,0.686
1.48,-0.7138,0.3141,-0.4044,0.878
1.481,-0.478,0.3154,-0.3065,0.649
1.482,0.2702,0.2445,-0.8116,0.89
1.486,-1.4675,0.2004,-0.5863,1.593
1.491,-1.2562,0.3946,-0.684,1.484
1.497,-0.2315,0.7402,-0.3639,0.857
1.501,-1.3334,0.2469,-0.8763,1.615
1.506,-0.2666,0.1695,-0.4789,0.574
1.514,-2.8035,0.1127,-0.0865,2.807
1.515,1.1148,-0.0007,-0.1819,1.13
1.521,3.1919,-0.5522,-0.2137,3.246
1.524,4.6595,-0.3963,0.9531,4.772
1.53,0.6297,-0.8064,2.011,2.256
1.534,-0.4477,-1.0935,0.711,1.379
1.539,1.0599,-1.4251,0.5596,1.862
1.546,1.9508,-1.6655,1.4496,2.946
1.548,0.9807,-1.5476,1.2365,2.21
1.553,0.3492,-1.2547,0.5006,1.395
1.558,0.0409,-0.9558,0.1603,0.97
1.564,0.1631,-0.6962,0.2094,0.745
1.568,0.1032,-0.3889,0.1691,0.436
1.573,-0.0778,-0.0727,-0.0634,0.124
1.579,-0.4357,0.1483,-0.2463,0.522
1.583,-0.4101,0.24,-0.2794,0.551
1.587,-0.4298,0.3052,-0.2631,0.589
1.596,-0.6713,0.2838,0.1014,0.736
1.597,-0.3023,0.3425,-0.2008,0.499
1.602,-0.719,0.3477,-0.6709,1.043
1.606,-0.9405,0.2599,-0.4274,1.065
1.612,-0.9646,0.3207,-0.4548,1.114
1.617,-0.8161,0.3913,-0.4536,1.012
1.621,-0.5797,0.478,-0.447,0.874
1.627,-0.1575,0.3002,-0.3268,0.471
1.631,0.1237,0.6237,-0.5328,0.83
1.636,0.0543,0.7681,-0.3532,0.847
1.641,0.2515,0.8497,-0.118,0.894
1.646,0.4595,0.8699,-0.0253,0.984
1.651,0.6724,0.8207,0.0301,1.061
1.655,0.8218,0.8092,-0.1313,1.161
1.664,0.9283,0.7062,-0.1323,1.174
1.665,0.9594,0.5334,0.1864,1.113
1.67,0.9292,-0.0516,0.8203,1.241
1.674,1.637,-0.3587,0.2335,1.692
1.68,1.0206,0.0394,-0.15,1.032
1.684,0.5014,0.0096,0.1329,0.519
1.689,0.1724,-0.0103,0.3922,0.429
1.694,-0.0345,0.0485,0.4589,0.463
1.699,-0.3612,0.0641,0.4484,0.579
1.703,-0.732,0.1281,0.4397,0.863
1.708,-1.0754,0.3601,0.3686,1.192
1.713,-1.3247,0.5924,0.1409,1.458
1.718,-1.542,0.753,0.0209,1.716
1.723,-1.6306,0.7585,0.0628,1.799
1.728,-1.6022,0.6193,0.1094,1.721
1.733,-1.5019,0.4632,0.0008,1.572
1.737,-1.3875,0.2833,-0.1288,1.422
1.742,-1.2824,0.1365,-0.1576,1.299
1.747,-1.2579,-0.0116,-0.021,1.258
1.752,-1.2828,-0.1409,0.3866,1.347
1.759,-1.089,-0.25,0.75,1.346
1.764,-0.537,-0.2876,0.7752,0.986
1.767,0.2131,-0.2165,0.5048,0.589
1.772,0.8446,-0.15,0.3987,0.946
1.777,1.1613,-0.1814,0.642,1.339
1.781,1.3233,-0.2605,0.9718,1.662
1.786,1.3532,-0.2434,1.1687,1.804
1.791,1.3668,-0.2166,1.2887,1.891
1.796,1.3277,-0.1678,1.2103,1.804
1.801,1.1883,-0.097,0.9314,1.513
1.805,0.9878,-0.0256,0.6284,1.171
1.81,0.7624,0.0182,0.4276,0.874
1.815,0.7824,0.0704,0.1401,0.798
1.821,0.938,0.1987,-0.3902,1.035
1.824,0.8483,0.4351,-0.5934,1.123
1.83,0.4602,0.5943,-0.2121,0.781
1.834,0.0561,0.6406,0.2691,0.697
1.839,-0.1848,0.7278,0.2631,0.796
1.844,-0.3568,0.8977,-0.0316,0.967
1.849,-0.5327,1.1662,-0.4265,1.351
1.854,-0.7618,1.3656,-0.6642,1.699
1.859,-1.0216,1.3134,-0.6161,1.774
1.87,-1.134,1.0704,-0.4403,1.62
1.87,-0.9412,0.7867,-0.268,1.256
1.933,-0.6476,0.58,-0.0894,0.874
1.933,-0.2925,0.4197,0.0533,0.514
1.934,0.1016,0.3512,0.0223,0.366
1.934,0.3503,0.3585,0.0855,0.508
1.934,0.4168,0.3087,0.2861,0.592
1.934,0.4283,0.1797,0.6268,0.78
1.934,0.4943,0.0685,0.7497,0.901
1.934,0.6803,0.0652,0.7053,0.982
1.934,0.8224,0.1,0.7661,1.128
1.935,0.9182,0.1175,0.8173,1.235
1.935,0.9584,0.1582,0.7229,1.211
1.935,0.9474,0.1647,0.5692,1.117
1.935,0.8563,0.1543,0.385,0.951
1.945,0.7876,0.1301,0.0624,0.801
1.946,0.6304,0.2195,-0.0721,0.671
1.947,0.4944,0.2777,-0.1122,0.578
1.951,0.3531,0.3434,-0.142,0.513
1.956,0.2016,0.3601,-0.1449,0.437
1.962,-0.0204,0.4479,-0.0543,0.452
1.965,-0.19,0.5497,0.1854,0.61
1.97,-0.2079,0.541,-0.2525,0.632
1.975,-0.1661,0.594,-0.0052,0.617
1.98,-0.1056,0.4785,-0.0999,0.5
1.984,-0.1668,0.4265,0.2093,0.503
1.994,-0.5038,0.4899,1.3753,1.544
1.995,-0.8069,0.5074,2.4389,2.619
1.999,-0.5979,0.6519,2.2665,2.433
2.004,0.0039,0.8608,1.1429,1.431
2.01,0.3475,0.932,0.1608,1.008
2.015,0.4153,0.7544,-0.1823,0.88
2.018,0.344,0.4825,-0.1675,0.616
2.024,0.2667,0.2508,-0.2135,0.424
2.029,0.256,0.1168,-0.2346,0.366
2.033,0.1377,0.0368,-0.1038,0.176
2.038,-0.1731,0.0217,0.237,0.294
2.043,-0.5304,0.0605,0.5357,0.756
2.048,-0.7213,0.0185,0.5562,0.911
2.052,-0.7746,-0.0929,0.3947,0.874
2.057,-0.7341,-0.2495,0.1638,0.792
2.062,-0.6273,-0.4583,-0.2057,0.804
2.068,-0.5542,-0.6038,-0.5109,0.966
2.072,-0.5252,-0.7645,-0.5374,1.072
2.077,-0.5712,-0.8544,-0.465,1.128
2.084,-0.6628,-0.8832,-0.3967,1.173
2.087,-0.7449,-0.8561,-0.2963,1.173
2.092,-0.7747,-0.7997,-0.3861,1.178
2.097,-0.7498,-0.6683,-0.6087,1.174
2.102,-0.7319,-0.54,-0.7015,1.149
2.106,-0.7282,-0.4907,-0.6938,1.119
2.113,-0.6577,-0.4621,-0.6099,1.009
2.116,-0.4249,-0.4756,-0.6078,0.881
2.122,-0.2335,-0.4475,-0.7375,0.894
2.127,-0.1834,-0.4111,-0.791,0.91
2.13,-0.2511,-0.3496,-0.7613,0.875
2.138,-0.3989,-0.3152,-0.7847,0.935
2.14,-0.4744,-0.303,-0.8801,1.045
2.148,-0.5211,-0.3224,-0.9975,1.171
2.152,-0.6151,-0.371,-1.0579,1.279
2.156,-0.723,-0.4321,-1.0112,1.316
2.161,-0.7643,-0.5225,-0.9265,1.31
2.165,-0.7111,-0.6452,-0.8251,1.266
2.172,-0.4509,-0.789,-0.7878,1.203
2.174,-0.0682,-0.9335,-0.8573,1.269
2.181,0.2599,-1.0505,-0.7827,1.336
2.187,0.4921,-1.196,-0.5736,1.415
2.192,0.6701,-1.3441,-0.4021,1.555
2.194,0.6105,-1.383,-0.2464,1.532
2.198,0.2731,-1.2535,-0.1948,1.298
2.203,-0.0947,-1.0728,-0.2996,1.118
2.208,-0.3219,-0.9191,-0.496,1.093
2.219,-0.4859,-0.8154,-0.6457,1.148
2.219,-0.6353,-0.7176,-0.7325,1.206
2.223,-0.8729,-0.4814,-0.8047,1.281
2.231,-0.9984,-0.2473,-0.8459,1.332
2.234,-1.0057,-0.0265,-0.8443,1.313
2.237,-0.9744,0.1551,-0.8409,1.296
2.242,-0.8932,0.3052,-0.8215,1.251
2.247,-0.8418,0.4457,-0.7741,1.227
2.252,-0.7661,0.5551,-0.6559,1.151
2.258,-0.7614,0.7459,-0.6079,1.227
2.261,-0.6731,0.8908,-0.6302,1.282
2.266,-0.5694,1.0544,-0.5194,1.306
2.271,-0.5124,1.2314,-0.4144,1.397
2.276,-0.3875,1.384,-0.5278,1.531
2.281,-0.1551,1.431,-0.8741,1.684
2.285,0.1583,1.3663,-1.1765,1.81
2.29,0.4801,1.2072,-1.1654,1.745
2.297,0.9418,0.9394,-0.8388,1.573
2.319,1.8479,0.6167,-0.4327,1.996
2.319,3.2102,0.2904,-0.0469,3.224
2.319,3.7914,0.111,0.5897,3.839
2.319,2.7769,0.0717,1.6811,3.247
2.32,0.9444,0.1181,2.2695,2.461
2.324,-0.1797,0.1421,1.6846,1.7
2.329,-0.3742,0.0704,0.5198,0.644
2.334,-0.0157,-0.1392,-0.2809,0.314
2.339,0.2751,-0.3874,-0.4004,0.621
2.344,0.369,-0.5563,-0.2077,0.699
2.348,0.2345,-0.5358,-0.0547,0.587
2.353,-0.0321,-0.3401,-0.0585,0.347
2.358,-0.1738,-0.0769,-0.4295,0.47
2.363,-0.2004,0.2446,-0.7446,0.809
2.369,-0.1441,0.4672,-0.8656,0.994
2.374,0.0384,0.5702,-0.8912,1.059
2.377,0.4017,0.5567,-1.1155,1.31
2.382,0.5163,0.5496,-1.2521,1.462
2.387,0.2741,0.5186,-1.1721,1.311
2.392,-0.0073,0.4756,-1.0073,1.114
2.397,-0.1852,0.3224,-0.8627,0.939
2.401,-0.221,0.1151,-0.6202,0.668
2.406,0.0579,-0.0929,-0.6257,0.635
2.411,0.0572,-0.2478,-0.2855,0.382
2.416,-0.6193,-0.4396,0.6469,0.998
2.421,-1.7934,-0.5157,1.1413,2.187
2.426,-2.4025,-0.4517,0.3757,2.473
2.43,-2.331,-0.3315,-0.9351,2.533
2.436,-2.1572,-0.2435,-1.4942,2.635
2.44,-2.0106,-0.0975,-1.4205,2.464
2.445,-1.9218,0.1333,-1.0882,2.213
2.452,-1.6989,0.3225,-0.8656,1.934
2.455,-1.3608,0.4006,-0.8817,1.67
2.46,-1.016,0.3844,-0.8611,1.386
2.464,-0.7813,0.3335,-0.7559,1.137
2.471,-0.5907,0.2622,-0.6427,0.911
2.475,-0.4744,0.1248,-0.4639,0.675
2.479,-0.4326,-0.0862,-0.2935,0.53
2.484,-0.4068,-0.3669,-0.2291,0.594
2.489,-0.1437,-0.6868,-0.2296,0.738
2.493,0.0464,-0.9033,-0.132,0.914
2.498,0.0638,-1.0336,0.2144,1.058
2.503,-0.0665,-1.2054,0.6878,1.389
2.509,-0.1634,-1.3553,0.9586,1.668
2.513,-0.2031,-1.453,0.9653,1.756
2.518,-0.2667,-1.4343,0.7944,1.661
2.522,-0.2802,-1.3108,0.637,1.484
2.528,-0.2789,-1.1658,0.3566,1.251
2.533,-0.3126,-1.0126,0.2157,1.082
2.537,-0.3264,-0.8672,0.1373,0.937
2.543,-0.298,-0.7288,-0.0296,0.788
2.548,-0.3232,-0.5609,-0.094,0.654
2.553,-0.4311,-0.332,0.0033,0.544
2.556,-0.4956,-0.1302,0.0971,0.522
2.562,-0.4357,0.0038,0.0414,0.438
2.567,-0.3783,0.0562,-0.03,0.384
2.572,-0.4484,0.044,-0.0861,0.459
2.577,-0.6216,-0.0064,-0.1795,0.647
2.582,-0.8783,-0.0452,-0.1666,0.895
2.587,-1.1443,-0.0869,-0.0857,1.151
2.592,-1.3059,-0.2039,-0.0154,1.322
2.597,-1.3284,-0.3368,-0.0418,1.371
2.603,-1.21,-0.4548,-0.0284,1.293
2.606,-0.9497,-0.5418,-0.0801,1.096
2.613,-0.5598,-0.526,-0.2585,0.81
2.615,-0.2938,-0.3983,-0.3024,0.58
2.623,-0.1724,-0.247,-0.0901,0.314
2.626,-0.0599,-0.1466,0.1079,0.192
2.631,0.0601,-0.1205,0.1553,0.206
2.636,0.0868,-0.1043,0.1216,0.182
2.641,-0.0136,-0.0909,0.1575,0.182
2.644,-0.127,-0.0184,0.0931,0.159
2.65,-0.0813,0.0416,-0.0381,0.099
2.656,0.0335,0.0417,-0.0304,0.062
2.66,0.0936,0.0607,0.0491,0.122
2.664,0.1038,0.1179,0.0355,0.161
2.669,0.0999,0.1628,0.1033,0.217
2.674,0.0244,0.1766,0.1855,0.257
2.679,-0.0392,0.1445,0.2296,0.274
2.684,-0.0483,0.0929,0.2235,0.247
2.689,-0.0985,-0.0071,0.1843,0.209
2.693,-0.1323,-0.0835,0.1357,0.207
2.699,-0.1429,-0.1915,0.0802,0.252
2.704,-0.0587,-0.2832,0.0368,0.292
2.708,0.073,-0.3062,-0.0946,0.329
2.713,0.2487,-0.2843,-0.2469,0.451
2.718,0.3355,-0.1957,-0.1787,0.428
2.722,0.3072,-0.1265,-0.0337,0.334
2.727,0.3113,-0.1127,0.0828,0.341
2.732,0.3757,-0.14,0.0729,0.408
2.737,0.3907,-0.1964,0.0298,0.438
2.742,0.3374,-0.2508,0.0684,0.426
2.749,0.2392,-0.3441,0.1193,0.436
2.754,0.1244,-0.3882,0.1299,0.428
2.757,0.0524,-0.4262,0.1267,0.448
2.763,0.0304,-0.4703,0.1383,0.491
2.768,0.0201,-0.468,0.0548,0.472
2.773,0.0436,-0.4025,-0.0589,0.409
2.776,0.0634,-0.3358,-0.0931,0.354
2.781,0.077,-0.2629,-0.0335,0.276
2.786,0.0865,-0.2196,-0.0022,0.236
2.79,0.1197,-0.177,-0.0328,0.216
2.795,0.1502,-0.1659,-0.1039,0.247
2.8,0.1472,-0.174,-0.1438,0.269
2.805,0.1802,-0.144,-0.2529,0.342
2.81,0.192,-0.1136,-0.326,0.395
2.815,0.1276,-0.1092,-0.2702,0.318
2.822,0.0967,-0.1068,-0.2456,0.285
2.825,0.1202,-0.1708,-0.2572,0.331
2.829,0.1119,-0.2345,-0.2667,0.372
2.833,0.1294,-0.3361,-0.25,0.438
2.839,0.1774,-0.4208,-0.243,0.517
2.844,0.2416,-0.4552,-0.2408,0.569
2.849,0.2143,-0.5043,-0.1454,0.567
2.853,0.2029,-0.5633,-0.1218,0.611
2.858,0.1693,-0.5631,-0.1865,0.617
2.864,0.0444,-0.5348,-0.1577,0.559
2.868,-0.1099,-0.4904,-0.1768,0.533
2.874,-0.2077,-0.4321,-0.2436,0.538
2.877,-0.2468,-0.4075,-0.2579,0.542
2.882,-0.2753,-0.4022,-0.2795,0.562
2.887,-0.2836,-0.3994,-0.2535,0.552
2.892,-0.2762,-0.411,-0.2969,0.577
2.898,-0.1905,-0.4014,-0.3642,0.575
2.902,-0.0734,-0.3918,-0.4027,0.567
2.907,-0.0416,-0.3442,-0.2425,0.423
2.911,0.0316,-0.3063,-0.1588,0.346
2.915,0.103,-0.264,-0.1944,0.344
2.92,0.0963,-0.2673,-0.1677,0.33
2.924,-0.0148,-0.2589,-0.0691,0.268
2.93,-0.1448,-0.2412,-0.0254,0.282
2.935,-0.261,-0.2622,-0.0152,0.37
2.94,-0.328,-0.2743,-0.0408,0.43
2.946,-0.3266,-0.3013,-0.1284,0.463
2.952,-0.2973,-0.3146,-0.1561,0.46
2.957,-0.2682,-0.3164,-0.2026,0.462
2.96,-0.2485,-0.283,-0.1675,0.412
2.966,-0.2024,-0.2599,-0.0509,0.333
2.971,-0.1801,-0.2545,-0.0822,0.322
2.976,-0.1981,-0.2382,-0.0987,0.325
2.979,-0.2539,-0.2156,-0.0692,0.34
2.984,-0.3357,-0.2226,-0.0299,0.404
2.988,-0.444,-0.2735,0.0049,0.521
2.993,-0.5455,-0.2825,-0.0291,0.615
2.998,-0.6044,-0.2641,-0.0746,0.664
3.003,-0.6161,-0.2255,-0.1005,0.664
3.008,-0.5371,-0.1859,-0.1306,0.583
3.013,-0.4268,-0.0994,-0.1483,0.463
3.018,-0.3568,0.0003,-0.0745,0.365
3.022,-0.3081,0.0612,0.0089,0.314
3.027,-0.2642,0.1597,0.0161,0.309
3.032,-0.3012,0.2077,0.0402,0.368
3.037,-0.3762,0.2933,0.0287,0.478
3.042,-0.5227,0.3736,0.0271,0.643
3.047,-0.6524,0.4512,-0.0509,0.795
3.051,-0.7156,0.548,-0.2102,0.926
3.056,-0.8079,0.6285,-0.2787,1.061
3.061,-0.8552,0.6956,-0.2975,1.142
3.066,-0.8962,0.7545,-0.3599,1.226
3.071,-0.8187,0.7432,-0.416,1.181
3.077,-0.711,0.7408,-0.3964,1.101
3.082,-0.6179,0.6656,-0.2076,0.932
3.087,-0.5871,0.6079,0.002,0.845
3.092,-0.5955,0.5788,0.068,0.833
3.097,-0.5861,0.5228,0.0647,0.788
3.102,-0.5588,0.4301,0.0856,0.71
3.105,-0.5728,0.3481,0.1716,0.692
3.11,-0.561,0.2836,0.2415,0.673
3.115,-0.5687,0.2288,0.2645,0.668
3.12,-0.5339,0.1813,0.2337,0.61
3.124,-0.5811,0.1527,0.1468,0.619
3.129,-0.7032,0.1889,0.123,0.738
3.134,-0.8337,0.2615,0.0189,0.874
3.139,-0.8242,0.3213,-0.1709,0.901
3.144,-0.686,0.4208,-0.3861,0.893
3.149,-0.5561,0.558,-0.5385,0.954
3.154,-0.4308,0.659,-0.5347,0.952
3.159,-0.3239,0.7335,-0.461,0.925
3.164,-0.3022,0.7546,-0.4461,0.927
3.168,-0.3638,0.7485,-0.4137,0.929
3.173,-0.4829,0.6745,-0.3539,0.902
3.179,-0.62,0.5443,-0.3268,0.887
3.183,-0.7739,0.4275,-0.3588,0.954
3.188,-0.9264,0.3144,-0.4163,1.063
3.193,-1.0155,0.1983,-0.5593,1.176
3.197,-1.0676,0.1442,-0.6495,1.258
3.202,-1.0898,0.1072,-0.6035,1.25
3.207,-1.032,0.0484,-0.4951,1.146
3.212,-0.9034,-0.1184,-0.4295,1.007
3.217,-0.7133,-0.3145,-0.3635,0.86
3.222,-0.3829,-0.5274,-0.3162,0.724
3.226,-0.1201,-0.7424,-0.3023,0.811
3.231,-0.1585,-0.8121,-0.2877,0.876
3.236,-0.0493,-0.7873,-0.3173,0.85
3.241,-0.2171,-0.7308,-0.3334,0.832
3.246,-0.2755,-0.726,-0.4147,0.88
3.251,-0.2354,-0.7373,-0.5273,0.937
3.256,-0.299,-0.7232,-0.5664,0.966
3.261,-0.4141,-0.7074,-0.4031,0.913
3.265,-0.637,-0.6633,-0.3009,0.968
3.27,-0.7874,-0.6372,-0.2808,1.051
3.275,-0.9717,-0.6725,-0.2686,1.212
3.28,-1.1171,-0.7263,-0.2928,1.364
3.285,-1.2793,-0.7799,-0.2935,1.527
3.29,-1.4281,-0.8091,-0.3091,1.67
3.297,-1.4891,-0.8408,-0.3488,1.745
3.301,-1.5296,-0.8335,-0.389,1.785
3.306,-1.5112,-0.799,-0.4778,1.775
3.309,-1.5702,-0.7553,-0.6254,1.851
3.314,-1.6651,-0.6332,-0.7669,1.939
3.32,-1.7023,-0.5371,-0.9315,2.013
3.325,-1.6304,-0.4355,-1.1504,2.042
3.33,-1.5415,-0.2536,-1.3163,2.043
3.333,-1.6215,-0.0213,-1.277,2.064
3.338,-1.7821,0.189,-1.1785,2.145
3.342,-1.9099,0.3827,-1.0979,2.236
3.347,-1.858,0.4621,-1.0834,2.2
3.352,-1.6066,0.4202,-1.0806,1.981
3.358,-1.2469,0.204,-1.0173,1.622
3.364,-1.0201,-0.0477,-0.9128,1.37
3.369,-1.1054,-0.2035,-0.8054,1.383
3.374,-1.3089,-0.3162,-0.7404,1.537
3.378,-1.4469,-0.3121,-0.7464,1.658
3.382,-1.4883,-0.3098,-0.7506,1.695
3.389,-1.558,-0.2832,-0.7122,1.736
3.393,-1.6878,-0.2326,-0.7412,1.858
3.397,-1.8306,-0.2467,-0.7946,2.011
3.403,-1.9433,-0.2345,-0.8652,2.14
3.408,-2.05,-0.2175,-0.9362,2.264
3.412,-2.1195,-0.1266,-1.0007,2.347
3.419,-1.9232,0.9215,-0.7422,2.258
3.422,-2.1082,1.3183,-0.5867,2.555
3.427,-2.3458,0.9435,-0.2905,2.545
3.431,-2.0657,0.7174,0.0065,2.187
3.436,-1.3152,0.2878,-0.2305,1.366
3.441,-0.7227,-0.2849,-0.8717,1.168
3.447,-0.7136,-0.6576,-1.4846,1.774
3.451,-1.0749,-0.7259,-1.616,2.072
3.456,-1.4022,-0.6926,-1.2262,1.987
3.462,-1.4226,-0.7153,-0.6695,1.727
3.466,-1.1899,-0.9191,-0.3284,1.539
3.472,-0.9501,-1.1051,-0.3364,1.496
3.476,-0.9389,-1.1966,-0.5333,1.612
3.482,-1.0526,-1.1815,-0.6871,1.725
3.485,-1.1474,-1.146,-0.7146,1.772
3.491,-1.0641,-1.1264,-0.6705,1.688
3.498,-0.8312,-1.0727,-0.6168,1.491
3.499,-0.5962,-0.9184,-0.5364,1.219
3.506,-0.5401,-0.6736,-0.2684,0.904
3.51,-0.5123,-0.4568,0.0425,0.688
3.516,-0.4517,-0.252,0.1817,0.548
3.518,-0.3741,-0.1003,0.1928,0.433
3.526,-0.3141,-0.0045,0.1956,0.37
3.528,-0.4859,0.112,0.2089,0.541
3.534,-0.7494,0.213,0.2136,0.808
3.538,-0.9122,0.337,0.1496,0.984
3.544,-0.9969,0.3813,0.0546,1.069
3.549,-0.9849,0.4207,0.0044,1.071
3.553,-0.9958,0.4387,0.0225,1.088
3.56,-0.9965,0.4239,0.0866,1.086
3.562,-0.8652,0.3572,0.1441,0.947
3.569,-0.5279,0.2151,0.2447,0.62
3.575,-0.3527,0.1767,0.3123,0.503
3.578,-0.4802,0.4834,0.3109,0.749
3.582,-0.8336,0.6214,0.3598,1.1
3.587,-0.9633,0.5837,0.5183,1.24
3.592,-0.7184,0.5045,0.6241,1.077
3.598,-0.2237,0.355,0.6343,0.761
3.601,0.1321,0.2646,0.6712,0.733
3.605,0.4031,0.2473,0.8641,0.985
3.611,0.4356,0.2091,1.0851,1.188
3.613,0.0036,0.4145,1.0748,1.152
3.623,-0.2984,0.5922,0.9593,1.166
3.624,-0.2092,0.6581,0.7464,1.017
3.63,0.2137,0.6579,0.5341,0.874
3.635,0.748,0.5898,0.4104,1.037
3.64,1.166,0.4947,0.3363,1.311
3.645,1.3679,0.562,0.2612,1.502
3.651,1.4949,0.6362,0.2638,1.646
3.658,1.6906,0.6576,0.3319,1.844
3.666,1.7228,0.6999,0.349,1.892
3.668,1.4985,0.7366,0.2386,1.687
3.672,1.2709,0.7225,0.1347,1.468
3.678,1.2375,0.6339,0.0226,1.391
3.682,1.3778,0.5238,-0.0721,1.476
3.683,1.6139,0.426,-0.0975,1.672
3.69,1.7248,0.4221,-0.0686,1.777
3.694,1.744,0.3899,0.0672,1.788
3.7,1.7125,0.3053,0.2482,1.757
3.704,1.5734,0.2487,0.2961,1.62
3.709,1.3461,0.1937,0.2424,1.381
3.714,1.102,0.0998,0.1828,1.122
3.72,0.7859,0.0199,0.0903,0.791
3.724,0.4765,-0.048,0.0195,0.479
3.729,0.2259,-0.0868,-0.0423,0.246
3.733,0.1939,-0.139,-0.0815,0.252
3.738,0.2965,-0.2119,-0.0455,0.367
3.742,0.4212,-0.2577,0.0322,0.495
3.748,0.4155,-0.1789,0.15,0.477
3.752,0.189,-0.012,0.2485,0.312
3.757,-0.165,0.1949,0.3092,0.401
3.762,-0.4817,0.3343,0.2744,0.647
3.767,-0.5993,0.3799,0.1419,0.724
3.771,-0.4726,0.3421,-0.0198,0.584
3.776,-0.2026,0.3169,-0.1207,0.395
3.781,0.1101,0.3431,-0.1636,0.396
3.786,0.2697,0.4373,-0.0748,0.519
3.794,0.3263,0.5587,0.0742,0.651
3.803,0.3973,0.6401,0.1833,0.775
3.805,0.638,0.6071,0.1621,0.895
3.808,1.0086,0.4768,0.1709,1.129
3.812,1.3108,0.3351,0.3129,1.389
3.816,1.514,0.1603,0.5381,1.615
3.821,1.5445,-0.0001,0.7106,1.7
3.824,1.2187,-0.0677,0.8098,1.465
3.83,0.9993,-0.1096,0.7452,1.251
3.835,1.3072,-0.2812,0.5364,1.441
3.839,1.8872,-0.6133,0.4414,2.033
3.844,2.0103,-0.8615,0.6415,2.279
3.852,1.4569,-0.9473,0.8424,1.931
3.854,0.6953,-0.8618,0.7627,1.345
3.86,0.4979,-0.8277,0.5488,1.111
3.862,0.9843,-0.993,0.3515,1.442
3.871,1.7122,-1.209,0.2949,2.117
3.874,2.1227,-1.349,0.4457,2.554
3.88,1.97,-1.3006,0.7318,2.471
3.884,1.5627,-1.117,0.9122,2.126
3.888,1.3429,-0.8991,0.7963,1.802
3.894,1.3771,-0.7567,0.6401,1.697
3.9,1.498,-0.6989,0.6104,1.762
3.902,1.5237,-0.6772,0.6392,1.786
3.909,1.3798,-0.648,0.6014,1.639
3.913,1.1205,-0.6014,0.5821,1.399
3.92,0.8333,-0.5758,0.6508,1.204
3.924,0.545,-0.617,0.7433,1.109
3.926,0.3308,-0.6658,0.6977,1.02
3.933,0.355,-0.6844,0.6747,1.025
3.935,0.4359,-0.7109,0.6956,1.086
3.944,0.3779,-0.7214,0.7535,1.109
3.945,0.1696,-0.7681,0.7854,1.112
3.953,0.0579,-0.8195,0.7576,1.118
3.955,-0.0096,-0.8732,0.7536,1.153
3.962,0.0387,-0.9505,0.8235,1.258
3.966,0.1213,-0.9967,0.9077,1.353
3.971,0.3491,-0.6968,1.2503,1.473
3.975,0.12,-0.4311,1.0436,1.136
3.98,-0.2935,-0.3635,0.8978,1.012
3.984,-0.0937,-0.1846,1.0605,1.081
3.99,0.3975,-0.0107,1.1457,1.213
3.994,0.7718,-0.0969,1.0718,1.324
4.001,0.8325,-0.399,0.8556,1.259
4.004,0.6038,-0.7015,0.6263,1.118
4.009,0.3692,-0.9245,0.6189,1.172
4.015,0.3197,-1.0506,0.8508,1.389
4.02,0.424,-1.1248,1.062,1.604
4.023,0.5834,-1.1927,1.0546,1.696
4.03,0.7585,-1.1176,0.8016,1.571
4.033,0.8977,-0.8878,0.4631,1.345
4.041,0.997,-0.5008,0.3211,1.161
4.042,1.1065,-0.1409,0.4562,1.205
4.048,1.2277,0.1769,0.652,1.401
4.053,1.3198,0.3782,0.7919,1.585
4.058,1.3995,0.4628,0.8436,1.698
4.064,1.4806,0.3925,0.9052,1.779
4.066,1.5241,0.2195,0.9779,1.824
4.073,1.5245,-0.0966,1.0208,1.837
4.081,1.5932,-0.4172,1.0581,1.958
4.085,1.5123,-0.6706,1.0493,1.959
4.088,1.1599,-0.9983,1.0937,1.881
4.09,1.2536,-0.7263,1.2681,1.925
4.097,1.0602,-0.5296,1.5279,1.934
4.102,0.9349,-0.6686,1.6161,1.983
4.106,0.7607,-0.9062,1.4158,1.845
4.111,0.5232,-0.8624,0.8039,1.29
4.115,0.2877,-0.5558,0.0557,0.628
4.121,0.1202,-0.1796,-0.501,0.546
4.126,0.0747,0.2453,-0.8067,0.847
4.13,-0.0014,0.6735,-0.8309,1.07
4.137,-0.1247,0.9045,-0.7017,1.152
4.141,-0.2667,0.9481,-0.5986,1.153
4.147,-0.3416,0.7614,-0.5552,1.002
4.152,-0.424,0.4475,-0.5459,0.823
4.153,-0.5735,0.0612,-0.5045,0.766
4.164,-0.7284,-0.3331,-0.4049,0.898
4.166,-0.8511,-0.75,-0.3085,1.176
4.17,-0.9327,-1.106,-0.2679,1.471
4.174,-1.0162,-1.3082,-0.1788,1.666
4.18,-1.1812,-1.3498,-0.1418,1.799
4.182,-1.3803,-1.2478,-0.207,1.872
4.188,-1.5018,-1.0597,-0.3392,1.869
4.193,-1.5487,-0.7783,-0.5658,1.823
4.198,-1.4034,-0.5615,-0.7239,1.676
4.204,-1.2926,-0.3062,-0.7931,1.547
4.207,-1.2245,0.0211,-0.8476,1.489
4.216,-1.1551,0.3177,-0.9285,1.516
4.218,-1.0856,0.5884,-0.9319,1.547
4.224,-1.1371,0.7808,-0.7698,1.58
4.227,-1.2421,0.8019,-0.5594,1.581
4.231,-1.2548,0.6015,-0.3647,1.439
4.241,-1.2112,0.2301,-0.1811,1.246
4.242,-1.1304,-0.2572,0.0474,1.16
4.246,-1.101,-0.6668,0.3186,1.326
4.251,-1.0828,-1.0371,0.5901,1.611
4.256,-1.0307,-1.3515,0.7052,1.84
4.262,-0.9069,-1.56,0.7866,1.968
4.264,-0.7166,-1.6676,0.8396,2
4.273,-0.6107,-1.6385,0.9578,1.994
4.276,-0.6233,-1.5088,1.1508,1.997
4.279,-0.5922,-1.427,1.2646,1.997
4.286,-0.5063,-1.4072,1.2943,1.978
4.29,-0.4446,-1.3896,1.3045,1.957
4.294,-0.4073,-1.3382,1.3645,1.954
4.301,-0.4158,-1.2123,1.2948,1.822
4.303,-0.4602,-0.9474,1.123,1.54
4.313,-0.5334,-0.5935,0.886,1.192
4.314,-0.5729,-0.2416,0.6662,0.911
4.321,-0.5591,-0.0469,0.4654,0.729
4.327,-0.563,0.0483,0.2745,0.628
4.33,-0.5186,0.0868,0.1877,0.558
4.333,-0.5948,0.1404,0.1505,0.629
4.337,-0.7978,0.2231,0.2551,0.867
4.341,-1.0057,0.318,0.4128,1.133
4.346,-1.0278,0.3365,0.6521,1.263
4.351,-0.9198,0.2188,0.9314,1.327
4.36,-0.8809,0.0729,1.2415,1.524
4.361,-0.9668,-0.027,1.5035,1.788
4.371,-1.0587,-0.0856,1.6754,1.984
4.372,-1.083,-0.1242,1.8421,2.14
4.378,-1.1259,-0.1857,1.9992,2.302
4.382,-1.1921,-0.2342,2.0384,2.373
4.387,-1.1952,-0.2457,1.9578,2.307
4.391,-1.1469,-0.1629,1.7945,2.136
4.396,-1.1065,0.0549,1.6121,1.956
4.405,-1.174,0.388,1.4142,1.878
4.407,-1.1868,0.743,1.2397,1.87
4.41,-1.1241,1.0911,1.2254,1.989
4.416,-1.0154,1.2862,1.4901,2.215
4.423,-1.0161,1.6203,1.2232,2.27
4.429,-1.2045,1.7657,1.0951,2.402
4.43,-1.3804,1.7083,1.1106,2.461
4.435,-1.0875,1.8614,0.9832,2.369
4.441,-0.6548,2.5402,1.3789,2.964
4.446,-0.8665,2.6549,1.8648,3.358
4.451,-1.1235,2.6984,1.9143,3.494
4.455,-1.2203,2.7259,1.7129,3.443
4.46,-1.0531,2.4697,1.4646,3.058
4.464,-1.0554,1.9917,1.1988,2.553
4.471,-0.7831,1.8078,0.8056,2.128
4.474,-0.9995,1.6906,0.9386,2.177
4.483,-1.168,1.5994,1.0497,2.242
4.487,-1.2473,1.4813,1.0574,2.206
4.488,-1.7827,1.0685,1.7143,2.694
4.496,-1.2583,0.8064,1.7208,2.279
4.498,-0.7181,1.0294,1.3111,1.815
4.503,-0.4626,1.8202,1.0365,2.145
4.508,-0.5144,2.5424,0.9179,2.752
4.513,-0.3378,2.95,0.8806,3.097
4.518,-0.4802,2.8262,0.6488,2.939
4.522,-0.4276,2.5849,0.0625,2.621
4.527,-0.5894,2.4438,-0.0775,2.515
4.532,-0.7014,2.393,0.2576,2.507
4.537,-0.6809,2.3996,0.7649,2.609
4.543,-0.5153,2.44,1.0923,2.723
4.547,-0.5188,2.4695,0.9832,2.708
4.555,-0.4958,2.3756,0.4429,2.467
4.556,-0.5442,2.1411,-0.1186,2.212
4.562,-0.7715,1.8232,-0.4368,2.027
4.564,-1.1572,1.5958,-0.6639,2.08
4.573,-1.4634,1.3747,-0.7815,2.155
4.574,-1.6272,1.1211,-0.9313,2.184
4.584,-1.7353,0.9712,-1.2187,2.332
4.585,-1.5754,0.9266,-1.5633,2.405
4.59,-1.3742,0.9797,-1.6359,2.35
4.594,-1.2215,1.1067,-1.5181,2.241
4.602,-1.1191,1.267,-1.439,2.22
4.604,-1.1025,1.4036,-1.5438,2.36
4.608,-1.1622,1.4139,-1.7269,2.516
4.614,-1.1596,1.3147,-1.8447,2.545
4.62,-1.0902,1.0441,-1.8566,2.393
4.625,-1.0038,0.6525,-1.7797,2.145
4.629,-1.006,0.1904,-1.6879,1.974
4.634,-1.0083,-0.2347,-1.6218,1.924
4.64,-0.8563,-0.7396,-1.5211,1.896
4.644,-0.5416,-1.4243,-0.5651,1.625
4.65,-0.6709,-1.5772,-0.3541,1.75
4.656,-0.8383,-1.4617,-1.2888,2.121
4.661,-0.8425,-1.445,-1.4398,2.207
4.664,-0.8948,-1.5269,-0.8793,1.976
4.677,-0.7112,-1.7186,-0.5314,1.934
4.679,-0.466,-1.8736,-0.5044,1.995
4.681,-0.3384,-1.9272,-0.3292,1.984
4.682,-0.2755,-1.8866,-0.1416,1.912
4.688,-0.1907,-1.7804,0.0009,1.791
4.693,-0.1003,-1.7213,0.1724,1.733
4.698,-0.0441,-1.697,0.4705,1.762
4.7,0.0189,-1.7052,0.8496,1.905
4.706,0.0556,-1.6885,1.1279,2.031
4.71,0.0204,-1.6185,1.4007,2.141
4.714,0.1024,-1.5575,1.7175,2.321
4.725,0.3732,-1.5536,1.7551,2.373
4.727,0.7202,-1.6595,1.7357,2.507
4.729,0.9592,-1.8181,1.7442,2.696
4.738,1.1282,-2.0536,1.5983,2.836
4.74,1.3604,-2.2467,1.3785,2.966
4.745,1.6094,-2.3145,1.0194,2.998
4.75,1.8886,-2.2194,0.8064,3.024
4.757,2.3145,-1.9835,0.6956,3.127
4.76,2.9086,-1.6261,0.6004,3.386
4.767,3.5304,-1.1853,0.514,3.759
4.77,4.0537,-0.7612,0.4347,4.147
4.774,4.3595,-0.4252,0.305,4.391
4.78,4.4411,-0.2748,0.1476,4.452
4.787,4.41,-0.3117,0.0402,4.421
4.789,4.3781,-0.3774,0.116,4.396
4.796,4.426,-0.4022,0.268,4.452
4.798,4.5567,-0.3473,0.309,4.58
4.803,4.6418,-0.2508,0.3068,4.659
4.809,4.668,-0.1938,0.2832,4.681
4.814,4.61,-0.2334,0.3127,4.627
4.821,4.4734,-0.348,0.3956,4.504
4.824,4.3662,-0.5684,0.4771,4.429
4.829,4.277,-0.8394,0.5864,4.398
4.833,4.1539,-1.0964,0.7216,4.356
4.839,3.899,-1.3155,0.8971,4.212
4.844,3.5463,-1.499,1.1756,4.026
4.847,3.1933,-1.6684,1.4457,3.882
4.854,2.9613,-1.7875,1.651,3.833
4.857,2.7757,-1.8851,1.8925,3.852
4.863,2.4874,-1.8846,2.0749,3.748
4.868,2.2483,-1.8769,1.9309,3.508
4.871,2.5327,-2.2684,1.8096,3.852
4.876,2.7361,-2.5353,1.8128,4.147
4.883,2.5575,-2.4913,1.9019,4.045
4.886,2.282,-2.3712,1.9922,3.847
4.898,2.0433,-2.2948,2.128,3.738
4.901,1.9402,-2.3819,2.0924,3.717
4.902,1.8479,-2.458,2.0786,3.712
4.906,1.7308,-2.5688,2.188,3.792
4.911,1.6224,-2.6836,2.3237,3.903
4.916,1.6111,-2.836,2.4516,4.08
4.921,1.8264,-2.9617,2.5709,4.326
4.924,1.9595,-2.9149,2.6314,4.389
4.93,1.8871,-2.5983,2.7134,4.204
4.935,1.8555,-2.2372,2.6703,3.947
4.94,2.0592,-2.0879,2.3932,3.785
4.944,2.3955,-2.0431,2.056,3.76
4.95,2.5361,-1.9959,1.8005,3.696
4.955,2.4817,-1.777,1.6833,3.486
4.961,2.297,-1.5614,1.5986,3.205
4.963,2.2207,-1.2989,1.5629,3.01
4.972,2.388,-1.1116,1.5548,3.059
4.974,2.811,-0.9129,1.5342,3.33
4.981,3.3633,-0.7246,1.7092,3.842
4.983,3.7495,-0.5701,2.0782,4.325
4.989,3.98,-0.4611,2.4102,4.676
4.993,4.0527,-0.4926,2.4679,4.771
5,4.0946,-0.4777,2.2425,4.693
5.003,4.0749,-0.2468,1.9209,4.512
5.009,3.9437,-0.0631,1.4792,4.213
5.014,3.6727,0.0229,1.0741,3.827
5.017,3.2185,0.052,0.7796,3.312
5.022,2.7478,-0.0232,0.5261,2.798
5.028,2.4343,-0.1354,0.235,2.449
5.031,2.4404,-0.2896,-0.0514,2.458
5.039,2.7114,-0.421,-0.1872,2.75
5.041,2.8941,-0.4171,-0.2011,2.931
5.048,2.9735,-0.3948,-0.0874,3.001
5.051,3.0064,-0.3658,0.113,3.031
5.057,2.965,-0.3245,0.4089,3.011
5.06,2.9267,-0.2993,0.6079,3.004
8.617,2.9141,-0.3206,0.645,3.002
8.619,2.836,-0.2475,0.5171,2.893
8.62,2.698,-0.0724,0.2239,2.708
8.62,2.4489,0.2095,-0.1792,2.464
8.621,2.2934,0.5358,-0.6997,2.457
8.622,2.1292,0.846,-1.3232,2.646
8.622,1.9933,1.0302,-2.0822,3.061
8.623,1.9979,1.0763,-2.8466,3.64
8.623,2.1694,1.1206,-3.3353,4.134
8.624,2.2934,1.2417,-3.4949,4.361
8.625,2.337,1.3203,-3.3699,4.308
8.626,2.3171,1.2754,-3.1124,4.084
8.626,2.3033,1.062,-2.809,3.785
8.627,2.2935,0.8238,-2.5518,3.529
8.628,2.3224,0.5203,-2.326,3.328
8.628,2.4649,0.1802,-1.9573,3.153
8.629,2.6506,-0.1989,-1.494,3.049
8.629,2.7809,-0.5597,-1.1191,3.049
8.63,2.6351,-0.7902,-0.7986,2.865
8.631,2.2908,-0.9051,-0.5583,2.526
8.631,1.8345,-0.993,-0.4655,2.137
8.632,1.3615,-0.9705,-0.4003,1.719
8.632,0.9211,-0.8878,-0.4116,1.344
8.632,0.5503,-0.7285,-0.3632,0.983
8.633,0.3267,-0.5308,-0.2556,0.674
8.633,0.1446,-0.3209,-0.3256,0.479
8.636,0.0728,-0.0967,-0.5279,0.542
8.638,-0.0414,0.1443,-0.7794,0.794
8.638,-0.1909,0.3949,-1.0352,1.124
8.639,-0.2038,0.5761,-1.342,1.475
8.64,-0.5203,0.719,-1.622,1.849
8.641,-0.9377,0.795,-1.8764,2.243
8.641,-1.249,0.7539,-2.0446,2.512
8.641,-1.4364,0.5911,-2.1303,2.636
8.642,-1.5965,0.4644,-2.0266,2.621
8.642,-1.663,0.3929,-1.7652,2.457
8.642,-1.6626,0.3263,-1.4108,2.205
8.643,-1.5645,0.2694,-1.0991,1.931
8.643,-1.4975,0.1815,-0.8277,1.721
8.643,-1.4012,0.0508,-0.5962,1.524
8.643,-1.2626,-0.0557,-0.3947,1.324
8.644,-1.1427,-0.1095,-0.2038,1.166
8.644,-0.892,-0.1847,-0.0376,0.912
8.644,-0.6387,-0.3793,0.0566,0.745
8.645,-0.4004,-0.5952,0.177,0.739
8.645,-0.2691,-0.5672,0.477,0.788
8.645,-0.2271,-0.4413,0.773,0.919
8.645,-0.1784,-0.3587,1.0037,1.081
8.646,-0.1396,-0.3048,1.0618,1.113
8.646,-0.2397,-0.33,0.9906,1.071
8.646,-0.3997,-0.4221,0.8738,1.049
8.647,-0.529,-0.5475,0.785,1.094
8.647,-0.6974,-0.6944,0.7383,1.23
8.647,-0.7405,-0.7981,0.7261,1.309
8.647,-0.7046,-0.8203,0.7433,1.312
8.647,-0.5803,-0.8354,0.7445,1.26
8.648,-0.3513,-0.7858,0.6769,1.095
8.648,-0.2808,-0.7577,0.6239,1.021
8.648,-0.0799,-0.6077,0.4705,0.773
8.648,-0.2031,-0.5105,0.2836,0.618
8.649,-0.1995,-0.3201,0.1796,0.418
8.649,-0.1252,-0.1586,0.0029,0.202
8.649,-0.2249,-0.1598,-0.228,0.358
8.649,-0.2509,-0.1994,-0.3749,0.493
8.65,-0.2206,-0.1674,-0.4192,0.502
8.65,-0.1991,-0.1738,-0.3852,0.467
8.65,-0.0238,-0.1184,-0.3542,0.374
8.65,0.1739,-0.0298,-0.3667,0.407
8.651,0.2727,0.0322,-0.3414,0.438
8.651,0.3856,0.0747,-0.3095,0.5
8.651,0.3649,0.0786,-0.2443,0.446
8.651,0.223,-0.0395,-0.2486,0.336
8.652,0.1489,-0.2294,-0.2288,0.357
8.652,0.1167,-0.4001,-0.2375,0.48
8.652,0.065,-0.4919,-0.1883,0.531
8.653,0.0208,-0.4308,-0.1313,0.451
8.653,0.0301,-0.3842,-0.0423,0.388
8.653,0.141,-0.364,0.0528,0.394
8.653,0.2369,-0.363,0.2191,0.486
8.655,0.2152,-0.3237,0.4383,0.586
8.655,0.1403,-0.2723,0.606,0.679
8.655,0.0764,-0.2113,0.6804,0.717
8.656,0.0401,-0.1572,0.7019,0.72
8.656,-0.0047,-0.1317,0.7664,0.778
8.656,-0.0511,-0.1706,0.8547,0.873
8.657,-0.044,-0.2618,0.9951,1.03
8.657,-0.0267,-0.3384,1.1279,1.178
8.657,-0.0443,-0.3287,1.2168,1.261
8.658,-0.0875,-0.252,1.2043,1.233
8.658,-0.1973,-0.1944,1.135,1.168
8.658,-0.283,-0.125,1.1089,1.151
8.659,-0.3382,-0.0843,1.147,1.199
8.659,-0.3177,-0.0843,1.2489,1.291
8.659,-0.2604,-0.1274,1.4217,1.451
8.66,-0.1998,-0.2064,1.5961,1.622
8.66,-0.2097,-0.2804,1.71,1.745
8.661,-0.3307,-0.3019,1.7491,1.805
8.661,-0.4789,-0.3019,1.8162,1.902
8.662,-1.1517,-0.8468,1.8133,2.309
8.662,-0.4617,-0.7028,1.8405,2.023
8.662,-0.4335,-0.3343,2.312,2.376
8.663,-0.5061,0.0648,2.3681,2.422
8.663,-0.6455,0.1671,2.1695,2.27
8.664,-0.7271,0.1165,1.9937,2.125
8.665,-0.8987,0.0158,1.9099,2.111
8.665,-0.993,-0.0703,1.8367,2.089
8.666,-1.1007,-0.0655,1.6952,2.022
8.666,-1.664,-0.345,1.5379,2.292
8.666,-1.4199,-0.3183,1.4215,2.034
8.667,-1.4832,0.1768,1.59,2.182
8.667,-1.5782,0.5758,1.4865,2.243
8.668,-1.7542,0.7329,1.3023,2.304
8.668,-1.8386,0.7704,1.1663,2.31
8.668,-1.8744,0.6931,1.1621,2.312
8.669,-1.876,0.5107,1.3806,2.385
8.669,-1.8987,0.453,1.6789,2.575
8.669,-1.9356,0.4122,1.9166,2.755
8.67,-1.8173,0.4959,2.0698,2.799
8.67,-1.5984,0.7445,2.237,2.848
8.67,-1.5869,1.0742,2.4805,3.134
8.671,-1.7179,1.246,2.6258,3.376
8.671,-1.7165,1.3176,2.7539,3.502
8.672,-1.6123,1.2578,2.7362,3.416
8.672,-1.3575,1.1934,2.7066,3.255
8.672,-1.0333,1.3056,2.9473,3.385
8.673,-0.7647,1.6177,3.4487,3.885
8.673,-0.6381,1.9717,3.8585,4.38
8.673,-0.6278,2.2434,3.9564,4.591
8.674,-0.7588,2.3566,3.6599,4.419
8.674,-1.0301,2.3261,2.8774,3.841
8.675,-1.3252,2.279,1.9629,3.287
8.675,-1.6243,2.3206,1.1214,3.046
8.676,-2.0223,2.1042,0.3105,2.935
8.676,-2.191,1.8859,-0.2579,2.902
8.677,-2.2081,1.864,-0.549,2.941
8.678,-2.1514,1.8207,-0.6094,2.884
8.678,-1.9472,1.7059,-0.5902,2.655
8.678,-2.0216,1.5745,-0.5203,2.615
8.679,-2.1985,1.3454,-0.4068,2.609
8.679,-2.0806,0.9398,-0.3883,2.316
8.68,-1.8798,0.5657,-0.1781,1.971
8.68,-1.8415,0.4264,0.2958,1.913
8.68,-1.8146,0.3711,0.6869,1.975
8.681,-1.8395,0.3709,0.9427,2.1
8.681,-1.9502,0.3446,0.9507,2.197
8.681,-2.1678,0.2444,0.8487,2.341
8.682,-2.4593,0.1372,0.7095,2.563
8.682,-2.7511,0.0875,0.7112,2.843
8.683,-3.0246,0.1213,0.8692,3.149
8.683,-3.2621,0.0927,1.1378,3.456
8.683,-3.4005,-0.0295,1.4285,3.688
8.684,-3.438,-0.2163,1.7471,3.862
8.684,-3.4323,-0.4294,2.1116,4.053
8.685,-3.3811,-0.621,2.4209,4.205
8.685,-3.2433,-0.7813,2.7463,4.321
8.686,-3.0902,-0.9342,3.0437,4.437
8.686,-2.9903,-0.9624,3.3053,4.56
8.687,-2.9024,-0.8877,3.5491,4.67
8.687,-2.7685,-0.8652,3.6809,4.686
8.688,-2.6052,-0.9976,3.6035,4.557
8.688,-2.6901,-1.7938,3.6636,4.886
8.689,-2.3328,-1.2764,3.6234,4.495
8.689,-1.8619,-0.8427,3.415,3.98
8.69,-1.4281,-0.7148,3.0415,3.435
8.69,-1.3612,-0.7897,2.6354,3.07
8.691,-1.4878,-0.9118,2.3413,2.92
8.691,-1.4923,-1.0285,2.2295,2.873
8.691,-1.3521,-0.9943,2.1372,2.717
8.692,-1.2109,-0.7876,1.9465,2.424
8.692,-1.0617,-0.6671,1.6979,2.111
8.692,-0.8877,-0.623,1.365,1.743
8.693,-0.7582,-0.5955,1.1005,1.463
8.693,-0.6541,-0.587,1.0141,1.342
8.693,-0.5373,-0.6215,1.0483,1.332
8.693,-0.537,-0.6678,1.1387,1.425
8.694,-0.4359,-0.7904,1.1569,1.467
8.694,-0.5643,-0.7142,1.0481,1.388
8.694,-0.5747,-0.7694,0.793,1.245
8.695,-0.374,-0.8962,0.5587,1.12
8.695,-0.2272,-0.9871,0.3899,1.085
13.404,-0.2369,-1.0159,0.3719,1.107
13.404,-0.2745,-0.9637,0.4995,1.12
13.404,-0.197,-0.8114,0.5642,1.008
13.405,-0.0902,-0.6694,0.4869,0.833
13.405,0.0726,-0.6595,0.4319,0.792
13.405,0.2411,-0.7409,0.438,0.894
13.405,0.3028,-0.7845,0.4434,0.951
13.406,0.3176,-0.8212,0.3701,0.955
13.406,0.6973,-0.9778,0.2518,1.227
13.406,0.1565,-0.5442,0.4184,0.704
13.407,-0.0932,-0.2406,0.4714,0.537
13.407,-0.0843,-0.1357,0.2367,0.286
13.407,0.0193,-0.2438,-0.1328,0.278
13.408,-0.2516,-0.2564,-0.2957,0.465
13.408,-0.4287,-0.4054,-0.3028,0.663
13.408,-0.5096,-0.6094,-0.417,0.897
13.408,-0.7065,-0.7631,-0.5164,1.161
13.409,-0.8367,-0.9216,-0.474,1.332
13.409,-0.8257,-1.1207,-0.4018,1.449
13.41,-0.7372,-1.3149,-0.3441,1.546
13.41,-0.6952,-1.3271,-0.2978,1.527
13.41,-0.711,-1.1886,-0.3433,1.427
13.411,-0.7582,-1.0311,-0.4945,1.372
13.411,-0.8081,-0.9118,-0.6174,1.366
13.412,-0.9041,-0.869,-0.7121,1.442
13.412,-0.8551,-0.9193,-0.8531,1.518
13.413,-0.6946,-0.8931,-0.8952,1.443
13.416,-0.6903,-0.7141,-0.8515,1.308
13.416,-0.7414,-0.5023,-0.7972,1.199
13.417,-0.7448,-0.3127,-0.7428,1.097
13.417,-0.8726,-0.1934,-0.782,1.188
13.417,-1.0835,-0.2087,-0.8697,1.405
13.418,-1.3271,-0.4255,-1.068,1.756
13.418,-1.5481,-0.5352,-1.0777,1.961
13.418,-1.8307,-0.3752,-0.9076,2.077
13.419,-2.295,0.0521,-0.6908,2.397
13.419,-2.5812,0.4502,-0.5575,2.679
13.419,-2.6936,0.6666,-0.6282,2.845
13.42,-2.8216,0.7804,-0.7947,3.033
13.42,-2.9368,0.9494,-1.0694,3.266
13.421,-2.8957,1.0634,-1.3555,3.369
13.421,-2.7117,1.091,-1.6191,3.341
13.421,-2.5277,1.0464,-1.8093,3.28
13.422,-2.279,1.013,-1.7507,3.047
13.422,-2.0039,1.0123,-1.4756,2.687
13.423,-1.8576,1.0515,-1.0149,2.364
13.423,-1.8706,0.9444,-0.5207,2.159
13.424,-1.8177,0.6603,0,1.934
13.424,-1.8631,0.2764,0.4421,1.935
13.424,-1.9301,-0.0635,0.7746,2.081
13.425,-1.8653,-0.2064,0.9704,2.113
13.425,-1.7025,-0.1548,1.0185,1.99
13.425,-1.5214,0.0337,0.9767,1.808
13.426,-1.4019,0.2801,0.7538,1.616
13.426,-1.3334,0.5388,0.3777,1.487
13.426,-1.5177,0.7856,-0.0241,1.709
13.426,-1.2411,0.705,-0.527,1.521
13.427,-0.9535,0.615,-0.8768,1.434
13.427,-0.7124,0.7138,-1.0658,1.467
13.427,-0.6038,0.9746,-1.0761,1.572
13.428,-0.6371,1.1441,-0.9317,1.607
13.428,-0.4678,1.0216,-0.9324,1.46
13.428,-0.2428,0.8441,-0.9927,1.325
13.429,-0.2148,0.7144,-0.7659,1.069
13.429,-0.1513,0.5202,-0.3237,0.631
13.429,-0.1421,0.3735,0.0133,0.4
13.429,-0.2041,0.2605,0.0129,0.331
13.43,-0.2527,0.1525,-0.2001,0.357
13.43,-0.2756,0.0972,-0.367,0.469
13.43,-0.1941,0.0423,-0.4719,0.512
13.43,-0.0578,0.0042,-0.4545,0.458
13.431,-0.0507,0.1406,-0.2149,0.262
13.431,-0.0876,0.2818,0.1205,0.319
13.431,-0.0532,0.4109,0.3995,0.576
13.432,-0.265,0.4566,0.5967,0.797
13.432,-0.4958,0.5359,0.3416,0.806
13.432,-0.5581,0.8065,-0.1541,0.993
13.433,-0.4814,1.0406,-0.4746,1.241
13.433,-0.4723,0.9875,-0.4803,1.195
13.433,-0.8112,0.633,-0.3241,1.079
13.434,-1.222,0.0733,-0.1301,1.231
13.434,-1.3884,-0.4619,0.0068,1.463
13.434,-1.4169,-0.6786,0.1713,1.58
13.435,-1.4906,-0.5557,0.2327,1.608
13.435,-1.4316,-0.3635,0.0888,1.48
13.435,-1.3089,-0.2528,-0.055,1.334
13.436,-1.168,-0.3405,-0.1417,1.225
13.436,-1.0956,-0.5333,-0.3016,1.255
13.436,-1.1553,-0.769,-0.2512,1.41
13.437,-1.0714,-1.1381,0.0029,1.563
13.437,-0.9331,-1.502,0.3798,1.809
13.437,-0.701,-1.7147,0.6991,1.98
13.438,-0.4409,-1.7309,0.9267,2.012
13.438,-0.2926,-1.4912,1.1509,1.906
13.438,-0.4248,-1.1752,1.3463,1.837
13.439,-0.5709,-1.1222,1.5901,2.028
13.439,-0.5714,-1.3224,1.7743,2.285
13.439,-0.4433,-1.6106,1.7478,2.418
13.44,-0.1403,-1.8119,1.538,2.381
13.44,0.2623,-1.8215,1.2258,2.211
13.44,0.6854,-1.6276,0.7643,1.924
13.441,1.0616,-1.3358,0.089,1.709
13.441,1.2877,-1.123,-0.5498,1.795
13.441,1.3896,-1.1185,-0.8538,1.978
13.442,1.3659,-1.2049,-0.7796,1.981
13.442,1.4876,-0.9807,-0.4159,1.83
13.442,1.7494,-0.7714,-0.1197,1.916
13.443,1.8757,-0.4095,-0.0993,1.922
13.443,1.6776,-0.1392,-0.2039,1.696
13.443,1.4876,0.0805,-0.0473,1.491
13.444,1.2575,0.2065,0.2761,1.304
13.444,0.9705,0.0216,0.7183,1.208
13.444,0.7702,-0.2085,1.3614,1.578
13.444,0.5191,-0.4263,1.9757,2.087
13.444,0.4815,-0.4356,2.4252,2.511
13.444,0.6183,-0.2678,2.6621,2.746
13.444,0.8221,-0.1285,2.6183,2.747
13.445,1.0363,-0.1588,2.237,2.47
13.445,1.2099,-0.2509,1.8596,2.233
13.445,1.457,-0.4071,1.4469,2.093
13.445,1.2032,-1.6408,0.7084,2.154
13.445,1.35,-1.3912,0.3678,1.973
13.445,1.2227,-0.5088,-0.0217,1.325
13.445,1.1256,0.2577,-0.573,1.289
13.445,0.9325,0.4353,-1.6903,1.979
13.446,0.6294,0.4382,-2.8013,2.904
13.446,0.1671,0.326,-3.7799,3.798
13.446,-0.1569,0.5985,-4.6613,4.702
13.446,0.0051,0.9799,-5.264,5.354
13.446,0.8232,1.4437,-5.0946,5.359
13.447,0.8398,1.7269,-3.865,4.316
13.447,0.1549,1.5408,-2.3438,2.809
13.447,-0.4197,0.9557,-1.3535,1.709
13.447,-0.8881,0.2929,-0.6307,1.128
13.447,-1.203,-0.1365,-0.1176,1.216
13.447,-1.3558,-0.2703,0.445,1.452
13.447,-0.3216,-0.606,1.0351,1.242
13.448,-0.2873,-0.372,-0.1526,0.494
13.448,-0.6379,0.0095,-1.7536,1.866
13.448,-0.7413,0.5498,-3.2034,3.334
13.448,-0.5348,0.9142,-3.7813,3.927
13.448,-0.2794,0.9266,-3.0271,3.178
13.449,-0.1061,0.5469,-1.7116,1.8
13.45,0.0239,0.0722,-0.7433,0.747
13.45,0.3102,-0.3253,0.0141,0.45
13.45,0.7622,-0.7197,0.1618,1.061
13.45,0.9317,-0.657,0.523,1.254
13.451,1.2886,-0.336,1.0975,1.726
13.451,1.4285,-0.0248,1.557,2.113
13.451,1.2741,0.1214,1.5228,1.989
13.451,0.8103,0.1407,0.8705,1.198
13.451,0.1358,0.0427,0.2084,0.252
13.451,-0.4297,-0.0959,-0.2825,0.523
13.451,-0.8106,-0.0934,-0.757,1.113
13.451,-1.0676,-0.0766,-1.0938,1.53
13.451,-1.17,-0.0527,-0.7657,1.399
13.452,-1.2469,0.0574,-0.6255,1.396
13.452,-1.0113,0.0908,-0.3169,1.064
13.452,-0.7617,0.2126,-0.0373,0.792
13.452,-0.4784,0.3247,-0.1443,0.596
13.452,-0.219,0.3793,-0.3674,0.572
13.452,0.119,0.2951,-0.3103,0.444
13.452,0.4351,0.1705,-0.3038,0.557
13.452,0.0556,0.2013,-0.0324,0.211
13.453,-4.7915,0.6409,1.3352,5.015
13.453,-0.2928,-0.385,0.4635,0.67
13.453,-2.999,-0.0688,0.0089,3
13.453,2.2839,-0.3217,-2.0548,3.089
13.453,-2.1243,0.8429,0.5626,2.354
13.454,3.3728,-0.3909,-1.1595,3.588
13.454,1.9309,-0.0459,-0.3274,1.959
13.454,2.2525,-0.33,-0.4663,2.324
13.454,-0.8253,-0.0976,0.5473,0.995
13.454,-0.6463,0.2372,-0.7249,1
13.454,1.8684,-1.3714,0.0405,2.318
13.454,4.5108,-0.7151,-0.7673,4.631
13.454,-3.7821,1.207,0.6898,4.029
13.455,4.1967,-1.1918,-0.5617,4.399
13.455,7.4393,-1.0019,-0.9516,7.567
13.455,1.5377,0.4541,0.5712,1.702
13.455,-1.749,0.061,0.145,1.756
13.455,-0.7616,-0.9935,-0.7695,1.469
13.455,-0.3332,-0.8946,-0.4983,1.077
13.456,-0.7588,-0.227,-0.7699,1.105
13.456,-0.6327,-0.1575,-0.7398,0.986
13.456,-0.4098,-0.4824,-0.6107,0.88
13.456,0.1902,-0.771,-0.4769,0.926
13.456,0.8664,-0.9518,-0.2711,1.315
13.456,1.0982,-0.8814,-0.1341,1.415
13.456,1.677,-0.8948,-0.157,1.907
13.457,1.9245,-0.8127,-0.4292,2.133
13.457,1.3207,-0.6113,-0.6691,1.602
13.457,0.8001,-0.5439,-0.8129,1.264
13.457,0.5896,-0.6032,-0.7294,1.115
13.457,0.3576,-0.6742,-0.5813,0.959
13.457,-0.1308,-0.7571,-0.1873,0.791
13.457,-0.5722,-0.9329,0.2349,1.119
13.457,-0.761,-0.91,0.3317,1.232
13.458,-0.829,-0.6887,0.3668,1.139
13.458,-1.2231,-0.2478,0.1042,1.252
13.458,-1.4041,0.1043,-0.2958,1.439
13.458,-1.6824,0.3629,-0.5441,1.805
13.458,-1.5947,0.3727,-0.348,1.674
13.458,-1.2887,0.5233,-0.1355,1.397
13.458,-0.896,0.6022,-0.0119,1.08
13.458,-0.7705,0.5566,0.0588,0.952
13.459,-0.3072,0.571,0.0192,0.649
13.459,-0.0601,0.5257,-0.2427,0.582
13.459,0.2217,0.4854,-0.3444,0.635
13.459,0.2462,0.4572,-0.1855,0.551
13.459,-0.2713,0.2451,-0.0747,0.373
13.459,-0.2868,0.0452,0.3532,0.457
13.459,0.6034,-0.0157,0.4681,0.764
13.459,0.2636,0.1031,0.304,0.415
13.459,-0.1493,0.0811,0.1545,0.23
13.46,-0.0128,0.047,-0.1905,0.197
13.46,-1.2203,-0.0087,-0.3222,1.262
13.46,-0.5912,-0.3731,0.0569,0.701
13.46,0.0381,-0.1469,0.3014,0.337
13.46,-0.2445,-0.0331,0.2087,0.323
13.46,-0.6617,-0.1154,-0.0034,0.672
13.46,-0.8249,-0.1162,-0.1101,0.84
13.46,-0.4884,-0.062,-0.2024,0.532
13.46,-0.5207,-0.0652,-0.3019,0.605
13.461,-0.9387,0.0964,-0.3825,1.018
13.461,-0.7769,0.0642,-0.1311,0.791
13.461,-0.6909,-0.0469,-0.0186,0.693
13.461,-0.7921,-0.091,-0.0207,0.798
13.461,-0.7193,-0.104,-0.0799,0.731
13.461,-0.8831,-0.1958,-0.0986,0.91
13.461,-1.3172,-0.1393,-0.024,1.325
13.462,-2.0012,0.0866,-0.0569,2.004
13.462,-1.8775,0.0418,-0.1516,1.884
13.462,-1.6971,-0.113,-0.2483,1.719
13.462,-34.8494,-0.4686,1.3214,34.878
13.463,-10.5253,-3.5942,0.6024,11.138
13.463,-5.934,-0.8624,-0.3028,6.004
13.463,-4.7873,0.0333,-1.3823,4.983
13.464,-4.966,-0.4975,-1.2146,5.137
13.464,-4.0144,-1.0682,-0.0997,4.155
13.464,-3.6236,-0.8778,1.4063,3.985
13.464,-1.5906,-0.611,0.6541,1.825
13.464,1.4913,-0.2369,-0.1551,1.518
13.464,-1.4822,1.5065,-0.5536,2.185
13.464,-0.9006,1.0348,-0.9233,1.654
13.465,1.0035,0.5185,-1.1335,1.6
13.465,3.1739,-0.4052,0.7636,3.29
13.465,0.527,0.4412,-0.2935,0.747
13.465,-0.4858,0.6871,-0.8668,1.208
13.465,2.2011,-0.1353,-0.6157,2.29
13.465,3.4167,-0.1222,0.0476,3.419
13.465,2.2802,0.8831,-1.4226,2.829
13.466,3.1904,0.1117,0.6159,3.251
13.466,2.016,0.281,-0.3079,2.059
13.466,4.9052,-0.6992,0.5255,4.983
13.466,4.127,-0.2631,0.5193,4.168
13.466,3.4514,-0.052,-0.041,3.452
13.466,5.94,-0.7301,-0.3374,5.994
13.466,4.9157,-0.1024,0.0482,4.917
13.467,6.0498,-0.4696,0.7109,6.11
13.467,6.7964,-0.9391,0.1129,6.862
13.467,7.1176,-0.6508,-0.819,7.194
13.467,3.7372,0.2246,0.3469,3.76
13.467,3.2041,-0.9253,-0.3264,3.351
13.467,1.3744,-0.6305,0.1557,1.52
13.468,1.9148,-0.7041,-0.7504,2.174
13.468,1.0595,-0.4861,-0.5155,1.275
13.468,0.1334,-0.5026,-0.7045,0.876
13.468,0.4483,-0.7006,-0.9634,1.273
13.468,-2.3256,-0.253,0.7447,2.455
13.468,0.3575,-1.1419,0.4581,1.281
13.468,-3.6175,0.3912,-1.2905,3.861
13.468,-2.061,-0.5485,-0.422,2.174
13.469,-1.3345,-0.5692,-0.3267,1.487
13.469,-3.0207,-0.0999,-0.6113,3.084
13.469,-0.7091,-0.7448,0.3827,1.097
13.469,-0.7934,-0.5333,0.0494,0.957
13.469,-0.9335,-0.26,0.3171,1.02
13.469,-0.0515,-0.6443,0.4635,0.795
13.469,-0.0469,-0.3542,-0.1159,0.376
13.469,5.1626,-1.783,1.9585,5.802
13.47,4.7012,-0.548,-1.0398,4.846
13.47,6.5764,-0.4142,1.3211,6.721
13.47,9.8803,-0.7755,-0.214,9.913
13.47,0.8971,1.2796,-1.1867,1.962
13.47,-1.0767,0.4166,-1.9645,2.279
13.47,-3.871,0.315,-1.3744,4.12
13.471,-6.3535,0.9427,-1.4488,6.584
13.471,-4.9918,0.0118,-1.0018,5.091
13.471,-5.0872,-0.1865,-0.1556,5.093
13.471,-2.4097,-0.3869,0.237,2.452
13.471,0.8539,-1.7102,2.2017,2.916
13.471,-6.6815,0.462,1.1563,6.797
13.472,-3.4185,0.5069,0.7546,3.537
13.472,-2.3467,-0.17,0.6687,2.446
13.472,6.4039,-1.3359,0.5993,6.569
13.472,5.2505,0.0925,-0.0619,5.252
13.472,-17.2992,2.8741,-0.7373,17.552
13.472,1.9854,-2.1194,0.4872,2.945
13.473,-1.2435,1.1143,-1.1576,2.032
13.473,6.1631,-1.762,0.9984,6.487
13.473,2.8727,0.9383,-2.9588,4.229
13.473,-10.4285,1.3625,1.7501,10.662
13.473,5.3378,-1.507,-0.6475,5.584
13.474,-3.3584,0.4019,1.8176,3.84
13.474,10.0752,-1.4555,0.3348,10.185
13.474,3.6749,1.2348,-0.4243,3.9
13.474,-3.4939,1.8306,-0.4469,3.97
13.474,-2.4601,0.1338,0.0969,2.466
13.474,-0.4439,0.0165,0.41,0.605
13.475,-0.4341,0.8577,-0.0902,0.966
13.475,-0.9671,1.0072,-0.4298,1.461
13.475,-1.6077,0.5973,0.068,1.716
13.475,-1.7222,0.4556,0.4084,1.828
13.475,-1.6416,0.6295,0.2154,1.771
13.475,-1.6911,0.5953,0.07,1.794
13.475,-1.5047,0.5708,0.1155,1.613
13.475,-0.967,0.372,0.2495,1.066
13.476,-0.1372,0.0133,0.2644,0.298
13.476,0.8331,0.2405,0.0672,0.87
13.476,1.3292,0.1114,-0.0319,1.334
13.476,1.5606,-0.0128,-0.1218,1.565
13.476,1.6716,-0.1799,-0.1692,1.69
13.476,1.7626,-0.3158,-0.2053,1.802
13.476,1.8644,-0.4085,-0.1991,1.919
13.476,1.7711,-0.4678,-0.1625,1.839
13.477,1.5636,-0.4505,-0.1858,1.638
13.477,1.26,-0.4644,-0.1546,1.352
13.477,0.8451,-0.5308,-0.057,1
13.477,0.4373,-0.5565,0.0428,0.709
13.477,0.1892,-0.5989,0.0611,0.631
13.477,0.0429,-0.579,0.0818,0.586
13.477,-0.1023,-0.5592,0.086,0.575
13.477,-0.3156,-0.5321,0.0523,0.621
13.477,-0.4586,-0.5505,0.0071,0.717
13.478,-0.5048,-0.5474,0.0075,0.745
13.478,-0.5475,-0.5323,0.0344,0.764
13.478,-0.5219,-0.5411,0.071,0.755
13.478,-0.516,-0.4901,0.1629,0.73
13.478,-0.4911,-0.4249,0.2147,0.684
13.478,-0.5399,-0.3884,0.1835,0.69
13.478,-0.7581,-0.5217,0.2463,0.953
13.478,-0.8307,-0.3776,0.2074,0.936
13.478,-0.8345,-0.0951,0.0619,0.842
13.479,-0.9219,-0.1356,-0.0333,0.932
13.479,-0.9284,-0.035,-0.0853,0.933
13.479,-0.8827,-0.1401,-0.0803,0.897
13.479,-0.6418,-0.0609,-0.0373,0.646
13.479,-0.2367,-0.1038,-0.0232,0.259
13.479,0.0848,-0.0725,0.0073,0.112
13.479,0.2225,-0.0866,0.0613,0.247
13.479,0.349,-0.0362,0.0934,0.363
13.479,0.4285,-0.017,0.1104,0.443
13.48,0.3945,0.1289,0.1648,0.447
13.48,0.3046,0.1694,0.2087,0.406
13.48,0.2183,0.3078,0.2134,0.434
13.48,0.0303,0.3218,0.2193,0.391
13.48,-0.1378,0.3119,0.2766,0.439
13.48,-0.2267,0.3499,0.3284,0.531
13.48,-0.2413,0.3615,0.2888,0.522
13.48,-0.2676,0.3922,0.1126,0.488
13.48,-0.2122,0.4157,-0.0041,0.467
13.481,-0.1514,0.4129,-0.0468,0.442
13.481,-0.1736,0.4149,-0.0709,0.455
13.481,-0.0995,0.3523,-0.0766,0.374
13.481,-0.1397,0.3042,-0.0209,0.335
13.481,-0.1845,0.2419,0.0102,0.304
13.481,-0.2438,0.1773,0.0859,0.313
13.481,-0.2941,0.1056,0.1204,0.335
13.481,-0.3763,-0.0066,0.0976,0.389
13.481,-0.5,-0.0708,0.015,0.505
13.481,-0.4216,-0.1874,-0.0866,0.469
13.482,-0.1317,-0.3111,-0.1521,0.37
13.482,0.0138,-0.3844,-0.141,0.41
13.482,0.1946,-0.4887,-0.156,0.549
13.482,0.1648,-0.5378,-0.2259,0.606
13.482,-0.1827,-0.563,-0.2119,0.629
13.482,-0.4346,-0.6527,-0.1261,0.794
13.482,-0.388,-0.771,-0.04,0.864
13.482,0.2051,-0.8723,-0.0849,0.9
13.482,0.2357,-0.7418,-0.1315,0.789
13.483,-0.0469,-0.6424,-0.2016,0.675
13.483,-2.0072,-0.1011,-0.4267,2.055
13.483,0.3436,-1.2739,0.4293,1.388
13.483,-2.2626,-0.1033,-0.0745,2.266
13.483,3.9427,-1.8474,0.0996,4.355
13.483,-1.418,0.7601,-0.8633,1.826
13.483,0.2082,-0.8394,0.4352,0.968
13.483,-0.9403,-0.2765,0.0235,0.98
13.484,-0.7186,-0.0538,0.1028,0.728
13.484,0.8409,-0.6343,0.3741,1.118
13.484,-2.2491,0.5757,0.0271,2.322
13.484,-1.103,-0.2136,0.3551,1.178
13.484,0.3153,-0.2036,0.0257,0.376
13.484,-1.2566,0.5925,-0.0042,1.389
13.484,-1.3959,0.4055,0.3337,1.491
13.484,0.3119,0.1711,-0.0551,0.36
13.485,0.2364,0.5534,-0.1111,0.612
13.485,1.7007,-0.054,0.5473,1.787
13.485,-0.723,1.0912,-0.4732,1.392
13.485,-0.1602,0.6386,-0.3844,0.762
13.485,0.4968,0.2201,0.2918,0.617
13.485,2.9221,-0.2673,0.451,2.969
13.485,1.0823,0.7635,-0.0402,1.325
13.485,2.2182,0.4044,-0.8443,2.408
13.486,0.4009,-0.0522,0.4672,0.618
13.486,1.3155,-0.5753,0.6228,1.565
13.486,7.5592,-1.1265,-0.0696,7.643
13.486,-1.3827,1.7186,-0.3095,2.227
13.486,-2.0628,0.4713,-0.59,2.197
13.486,-0.5935,-0.2893,-0.0723,0.664
13.486,-1.1982,0.1484,0.1007,1.212
13.486,-2.0899,0.4087,-0.1206,2.133
13.486,-2.1626,0.2817,-0.1025,2.183
13.487,-1.9951,0.143,0.1573,2.006
13.487,-1.7161,0.0715,0.3356,1.75
13.487,-1.3486,0.0359,0.361,1.397
13.487,-1.2116,0.0625,0.3249,1.256
13.487,-1.1639,0.0532,0.2321,1.188
13.487,-1.0545,-0.0015,0.1234,1.062
13.487,-0.9191,-0.0442,0.0581,0.922
13.487,-0.7916,-0.0677,0.036,0.795
13.488,-0.6614,-0.0864,0.0092,0.667
13.488,-0.5377,-0.1242,-0.0199,0.552
13.488,-0.3865,-0.1597,-0.0941,0.429
13.488,-0.2726,-0.1569,-0.1991,0.372
13.488,-0.19,-0.147,-0.2415,0.341
13.488,-0.1318,-0.1444,-0.1932,0.275
13.488,-0.0739,-0.1849,-0.0899,0.218
13.489,-0.0096,-0.1751,0.0538,0.183
13.489,0.0465,-0.1942,0.1592,0.255
13.489,0.0725,-0.1559,0.1811,0.25
13.489,0.1132,-0.1535,0.1817,0.263
13.489,0.1756,-0.1249,0.0917,0.234
13.489,0.2234,-0.0987,0.0092,0.244
13.489,0.2494,-0.0486,-0.0804,0.267
13.489,0.3323,-0.0344,-0.1318,0.359
13.489,0.453,-0.0178,-0.1257,0.47
13.49,0.5808,-0.006,-0.0908,0.588
13.49,0.661,-0.0278,-0.1132,0.671
13.49,0.7201,-0.0184,-0.0902,0.726
13.49,-0.2601,0.2921,-0.373,0.54
13.49,-2.1849,0.2437,0.0206,2.199
13.49,3.4605,-0.9708,0.3377,3.61
13.49,1.524,0.2298,0.053,1.542
13.49,-3.6248,0.9725,-0.5442,3.792
13.491,1.3446,-0.7258,0.0063,1.528
13.491,1.4661,-0.0059,0.1813,1.477
13.491,0.7277,0.1133,-0.1837,0.759
13.491,0.7484,-0.0593,-0.3983,0.85
13.491,0.0995,0.1245,-0.2719,0.315
13.491,-0.2397,0.0906,-0.0891,0.271
13.491,-0.1724,0.0162,-0.0074,0.173
13.491,-0.825,0.176,-0.1219,0.852
13.491,-4.167,0.7182,-0.3728,4.245
13.492,-0.0859,-0.8768,0.4686,0.998
13.492,3.9959,-0.9284,0.2699,4.111
13.492,0.1275,0.5447,-0.3781,0.675
13.492,-7.5598,1.4354,-0.7446,7.731
13.492,-1.7627,-0.9394,0.3946,2.036
13.492,-1.1072,-0.2833,0.6566,1.318
13.492,1.2937,-0.8876,0.6947,1.716
13.493,-1.4375,0.1675,-0.6675,1.594
13.493,0.7728,-0.6762,-0.4565,1.124
13.493,-3.943,0.5818,-0.5506,4.024
13.493,-0.3806,-0.7332,0.1243,0.835
13.493,1.2577,-0.7608,0.2875,1.498
13.493,-1.2993,0.0766,-0.2582,1.327
13.493,-1.2817,-0.1242,-0.5779,1.411
13.494,0.3505,-0.5232,-0.3498,0.72
13.494,0.8465,-0.3171,-0.4063,0.991
13.494,-0.982,-0.1711,-0.2669,1.032
13.494,2.1519,-1.0959,-0.0392,2.415
13.494,-1.4116,0.1815,-0.3253,1.46
13.494,1.0636,-0.6195,-0.1616,1.241
13.494,1.9473,-0.6453,-0.0238,2.052
13.494,2.3072,-0.5635,0.37,2.404
13.495,6.2785,-0.6874,-0.1346,6.317
13.495,0.0081,1.1198,-0.4807,1.219
13.495,-0.466,0.449,-0.4922,0.813
13.495,0.7557,0.0538,-0.0849,0.762
13.495,0.6641,0.1371,-0.036,0.679
13.495,0.2589,0.2418,-0.3456,0.495
13.495,0.1097,0.2796,-0.5216,0.602
13.495,0.2075,0.2241,-0.4712,0.562
13.495,0.3586,0.1568,-0.2734,0.477
13.496,0.36,0.1446,-0.0786,0.396
13.496,0.1453,0.1635,0.0684,0.229
13.496,-0.0599,0.0867,0.168,0.198
13.496,-0.076,-0.0091,0.1321,0.153
13.496,-0.2519,-0.0116,0.0443,0.256
13.496,-0.3915,-0.0476,0.0047,0.394
13.496,-0.5833,-0.1362,-0.018,0.599
13.496,-0.7056,-0.2222,-0.0239,0.74
13.496,-0.756,-0.2819,-0.0467,0.808
13.497,-0.8254,-0.2722,-0.0096,0.869
13.497,-0.9093,-0.2529,0.0561,0.945
13.498,-0.912,-0.3005,0.1504,0.972
13.498,-0.879,-0.3434,0.1992,0.964
13.498,-0.7766,-0.398,0.164,0.888
13.498,-0.6261,-0.3857,0.1165,0.745
13.498,-0.5205,-0.3591,0.0925,0.639
13.498,-0.4694,-0.3492,0.1252,0.598
13.498,-0.4103,-0.3608,0.129,0.561
13.499,-0.3506,-0.3652,0.1061,0.517
13.499,-0.2665,-0.3361,0.0876,0.438
13.499,-0.2226,-0.295,0.1239,0.39
13.499,-0.145,-0.2278,0.1383,0.303
13.499,-0.0889,-0.1916,0.1045,0.236
13.499,-0.0398,-0.1722,0.0561,0.185
13.5,-0.0197,-0.1433,0.0668,0.159
13.5,0.0003,-0.0905,0.0437,0.1
13.5,0.1776,-0.0496,-0.006,0.185
13.5,0.2038,-0.0064,-0.0345,0.207
13.5,-1.5006,0.2877,-0.4575,1.595
13.5,-12.4043,0.8419,-0.0266,12.433
13.501,-0.7044,-1.3435,1.5508,2.169
13.501,2.0651,-0.8162,0.8298,2.371
13.501,2.8693,-0.3756,-0.5072,2.938
13.501,2.8301,-0.0645,-0.9392,2.983
13.502,3.7682,-0.1766,-0.4388,3.798
13.502,1.961,0.0198,-0.0433,1.962
13.502,0.5669,0.1562,-0.0886,0.595
13.502,-2.0935,-0.1353,0.3975,2.135
13.502,4.1309,-0.3788,0.0175,4.148
13.503,0.149,0.4605,-1.0993,1.201
13.503,0.0524,0.3047,-1.1669,1.207
13.503,0.6622,0.3285,-0.8066,1.094
13.503,0.6152,0.3356,-0.394,0.804
13.503,0.3939,0.2591,-0.1744,0.503
13.504,0.1421,0.2281,-0.0385,0.271
13.504,0.1072,0.1947,0.2035,0.301
13.504,0.1702,0.1039,0.4201,0.465
13.504,0.1216,-0.0179,0.4747,0.49
13.504,-0.0877,-0.0726,0.4724,0.486
13.504,-0.2568,-0.1823,0.4947,0.586
13.504,-0.4218,-0.2919,0.4678,0.694
13.505,-0.7364,-0.3273,0.4089,0.904
13.505,-1.3111,-0.3699,0.2867,1.392
13.505,-6.736,-0.6372,0.4742,6.783
13.505,5.9212,-0.1872,1.4779,6.106
13.505,-2.7878,-0.6843,-1.2397,3.127
13.506,-6.4219,-0.3347,0.1398,6.432
13.506,6.2007,0.3036,1.7086,6.439
13.506,-2.324,-0.6506,-0.8278,2.551
13.506,-1.0284,-0.1122,0.1017,1.039
13.506,-0.6182,0.4613,0.2844,0.822
13.506,-0.3642,0.5776,0.2202,0.717
13.506,-0.4152,0.5768,-0.0958,0.717
13.507,-0.7897,0.5736,-0.3982,1.054
13.507,-8.7639,0.1713,-0.8343,8.805
13.507,1.7707,0.2117,1.9286,2.627
13.507,2.7121,0.2806,0.5955,2.791
13.815,3.0067,0.3732,-0.7144,3.113
13.815,-1.9096,0.2508,-1.0211,2.18
13.816,0.0675,0.1359,0.9582,0.97
13.816,0.8723,-0.132,1.2868,1.56
13.816,0.295,-0.1223,0.4525,0.554
13.816,-4.3255,-0.0745,-0.277,4.335
13.816,5.2691,0.3055,0.6869,5.322
13.816,-0.8678,0.054,-1.4082,1.655
13.816,0.133,0.1759,-0.3915,0.449
13.816,0.6349,0.0587,0.2617,0.689
13.817,0.6521,-0.1803,0.5222,0.855
13.817,0.5551,-0.1322,0.4176,0.707
13.817,0.2316,-0.046,0.1012,0.257
13.817,0.2243,0.0616,-0.0902,0.25
13.817,0.1481,0.0664,-0.1839,0.245
13.817,-0.0068,0.0305,-0.1037,0.108
13.817,-0.219,0.0019,0.0455,0.224
13.817,-0.4288,-0.0315,0.1543,0.457
13.817,-0.5171,-0.0984,0.1562,0.549
13.818,-0.5869,-0.0672,0.1324,0.605
13.818,-0.564,-0.0408,0.1615,0.588
13.818,-0.556,-0.0265,0.2102,0.595
13.818,-0.6678,-0.0313,0.2785,0.724
13.818,-0.6221,-0.0338,0.2997,0.691
13.818,-0.4524,0.0067,0.2281,0.507
13.818,-0.6443,0.0185,-0.003,0.645
13.818,-1.6677,0.0326,-0.2287,1.684
13.818,-0.7421,-0.0011,0.0935,0.748
13.818,0.3365,0.0249,0.0053,0.337
13.819,0.201,0.039,-0.3078,0.37
13.819,0.3857,0.0053,-0.2915,0.483
13.819,0.554,0.0051,-0.1346,0.57
13.819,0.4769,0.0098,-0.0288,0.478
13.819,-7.7627,0.3752,-1.5578,7.926
13.819,7.2367,-0.6411,3.1293,7.91
13.819,-6.0545,0.368,-1.344,6.213
13.82,6.9518,-0.187,0.6215,6.982
13.82,-3.6859,0.4392,-2.2038,4.317
13.82,-2.2888,-0.3835,0.5227,2.379
13.82,5.6776,0.1498,1.8125,5.962
13.82,-1.1611,-0.0394,-0.9995,1.533
13.82,-0.5267,0.0562,-0.2455,0.584
13.82,-3.8774,0.3237,-0.6369,3.943
13.821,1.9586,-0.5468,1.7836,2.705
13.821,6.758,0.4814,0.3847,6.786
13.821,-4.8756,0.2775,-2.632,5.548
13.821,0.0752,-0.0168,0.4211,0.428
13.821,2.8047,-0.0216,0.9308,2.955
13.821,-7.2678,-0.2941,-0.7198,7.309
13.822,8.8128,-0.3631,1.9554,9.034
13.822,-2.4672,0.3183,-2.1048,3.259
13.822,-2.6013,-0.282,-0.8372,2.747
13.822,2.083,-0.2386,1.0185,2.331
13.822,0.3776,-0.3841,-0.0267,0.539
13.822,-8.1853,-0.4864,-0.6595,8.226
13.823,7.8761,-0.7607,2.4568,8.285
13.823,-2.1905,-0.1528,-1.5399,2.682
13.823,-2.5745,-0.6952,-0.636,2.741
13.823,2.2643,-0.5533,1.096,2.576
13.823,0.3367,-0.6077,0.0331,0.696
13.823,-0.7856,-0.6931,-0.0434,1.049
13.823,0.061,-0.5537,0.2177,0.598
13.823,-0.3177,-0.7658,-0.1087,0.836
13.824,-0.3723,-0.6551,-0.1331,0.765
13.824,-0.2442,-0.3533,-0.0836,0.438
13.824,-0.3549,-0.3243,-0.1805,0.514
13.824,-0.4984,-0.3838,-0.0676,0.633
13.824,-0.4381,-0.3021,0.0399,0.534
13.824,-0.3696,-0.2493,0.0493,0.449
13.824,-0.2366,-0.2108,0.0493,0.321
13.824,-0.0753,-0.1246,0.0187,0.147
13.825,0.1264,-0.256,-0.0115,0.286
13.825,-0.1753,-0.5378,0.0095,0.566
13.825,-0.1004,-0.0641,0.0601,0.133
13.825,0.0939,0.1103,-0.0537,0.155
13.825,-0.4623,0.196,-0.1895,0.537
13.825,-0.6834,0.2244,-0.1778,0.741
13.825,0.2996,0.1642,-0.0335,0.343
13.825,0.5807,0.2213,-0.3086,0.694
13.826,-0.3684,-0.0896,-0.4932,0.622
13.826,-0.0969,-0.2425,0.0283,0.263
13.826,0.22,0.2644,0.3236,0.472
13.826,0.2331,0.319,0.2937,0.492
13.826,-0.2919,0.5552,-0.1048,0.636
13.826,-0.3907,0.4851,-0.2608,0.675
13.826,-0.2223,0.2957,-0.2721,0.459
13.826,-0.246,0.3623,-0.1066,0.451
13.826,-0.3396,0.3595,0.0354,0.496
13.827,-3.1922,0.2276,-0.1873,3.206
13.827,3.0743,0.0002,1.1041,3.267
13.827,-0.7263,0.3825,-0.6056,1.02
13.827,-0.6942,0.1192,-0.3093,0.769
13.827,0.4082,0.0832,0.3303,0.532
13.827,-0.0905,0.0687,0.1089,0.157
13.827,-0.2514,0.0065,-0.0692,0.261
13.827,-0.2019,-0.0007,-0.1926,0.279
13.827,-0.1764,0.0184,-0.2447,0.302
13.828,-0.0196,-0.0246,-0.1562,0.159
13.828,0.0555,-0.0724,-0.068,0.114
13.828,0.0877,-0.1487,0.0296,0.175
13.828,0.0912,-0.2058,0.1031,0.248
13.828,0.1069,-0.2677,0.1312,0.317
13.828,0.0894,-0.2912,0.102,0.321
13.828,0.0004,-0.2789,0.0563,0.285
13.828,0.0002,-0.2618,0.0224,0.263
13.828,-0.0048,-0.2591,-0.0306,0.261
13.829,-0.0147,-0.2946,-0.0718,0.304
13.829,-0.0438,-0.2942,-0.0488,0.301
13.829,-0.0394,-0.3009,-0.0116,0.304
13.829,-0.0277,-0.3149,-0.0534,0.321
13.829,-0.0206,-0.2762,-0.1239,0.303
13.829,-0.054,-0.2639,-0.1108,0.291
13.829,-0.0224,-0.2444,-0.0664,0.254
13.829,-0.0093,-0.2536,-0.0532,0.259
13.829,-0.0627,-0.2198,-0.0135,0.229
13.829,-0.0822,-0.1694,-0.0382,0.192
13.83,-0.0749,-0.0951,-0.0699,0.14
13.83,-0.0769,-0.0233,-0.0537,0.097
13.83,-0.1099,0.0054,-0.0566,0.124
13.83,-0.1331,0.0388,0.0027,0.139
13.83,-0.1709,0.0555,0.0094,0.18
13.83,-0.2017,0.053,0.0258,0.21
13.83,-0.1804,0.0481,-0.0055,0.187
13.83,-0.1764,0.0505,-0.0079,0.184
13.83,-0.1775,0.0504,0.004,0.185
13.83,-0.1696,0.0408,0.0518,0.182
13.831,-0.1598,0.012,0.0925,0.185
13.831,-0.1122,-0.0406,0.1286,0.175
13.831,-0.0698,-0.0597,0.1148,0.147
13.831,-0.0349,-0.0644,0.1084,0.131
13.831,0.0142,-0.0882,0.1022,0.136
13.831,0.0751,-0.0881,0.1105,0.16
13.831,0.0644,-0.0689,0.1188,0.152
13.831,0.0395,-0.0713,0.1246,0.149
13.831,0.0316,-0.0521,0.116,0.131
13.832,0.0237,-0.0066,0.0545,0.06
13.832,0.0278,0.0268,-0.0285,0.048
13.832,0.0365,0.0674,-0.071,0.105
13.832,0.122,0.1032,-0.0826,0.18
13.832,0.1813,0.0768,-0.0801,0.213
13.832,0.1134,0.2304,-0.0842,0.27
13.832,0.1198,0.2617,-0.0934,0.303
13.832,0.0885,0.2358,-0.1029,0.272
13.832,0.0432,0.2196,-0.032,0.226
13.832,0.0292,0.1917,0.0572,0.202
13.833,-0.03,0.1545,0.0152,0.158
13.833,-0.2359,0.1296,-0.0454,0.273
13.833,-0.2624,0.0905,0.0157,0.278
13.833,-0.1799,0.0613,0.0551,0.198
13.833,-0.3048,0.0015,0.0161,0.305
13.833,-0.4695,-0.0768,0.0229,0.476
13.833,-0.4434,-0.1615,0.0417,0.474
13.833,-0.4701,-0.2147,0.0012,0.517
13.834,-0.5745,-0.2527,-0.0798,0.633
13.834,-0.5405,-0.2715,-0.1272,0.618
13.834,-0.4706,-0.2974,-0.1314,0.572
13.834,-0.7137,-0.2612,-0.1883,0.783
13.834,-0.5858,-0.3206,-0.0659,0.671
13.834,0.1063,-0.3154,0.0587,0.338
13.834,-0.5858,-0.2146,-0.1752,0.648
13.834,-0.8755,-0.2119,-0.0859,0.905
13.834,-0.0004,-0.2356,0.1996,0.309
13.835,0.1235,-0.1613,0.0622,0.212
13.835,-0.0973,-0.0966,-0.1752,0.222
13.835,0.091,-0.0678,-0.1494,0.188
13.835,0.2033,-0.0224,-0.0711,0.216
13.835,0.1295,0.0493,-0.086,0.163
13.835,0.0561,0.0731,-0.1632,0.187
13.835,0.0448,0.1111,-0.1975,0.231
13.835,0.1478,0.1253,-0.146,0.243
13.835,0.1882,0.1203,-0.1116,0.25
13.836,-0.6464,0.1847,-0.2901,0.732
13.836,-1.2485,0.0913,-0.1721,1.264
13.836,0.2078,-0.1646,0.3307,0.424
13.836,0.6728,-0.1238,0.1305,0.696
13.836,0.2857,-0.0926,-0.2511,0.391
13.836,0.4275,-0.1426,-0.1569,0.477
13.836,0.2313,-0.1425,-0.0197,0.272
13.836,1.3537,-0.3001,0.2012,1.401
13.836,-4.2524,0.6036,-1.1269,4.44
13.837,0.7674,-0.7546,0.1444,1.086
13.837,4.3891,-1.0047,1.1848,4.656
13.837,-4.1302,0.82,-1.4473,4.453
13.837,0.8659,-0.5408,-0.4111,1.101
13.837,3.2654,-0.8413,1.0803,3.541
13.837,1.8286,0.1133,-0.1735,1.84
13.837,-2.576,0.2231,-1.0488,2.79
13.838,0.4339,-0.0998,0.0604,0.449
13.838,-0.6623,0.0699,0.0841,0.671
13.838,2.036,-0.2839,0.5335,2.124
13.838,-2.6029,0.6796,-1.4318,3.047
13.838,2.2233,-0.6069,0.5599,2.372
13.838,-0.0037,0.6031,-0.524,0.799
13.838,-1.1703,-0.246,0.1548,1.206
13.838,2.9451,0.0817,0.3502,2.967
13.839,-2.6267,0.1676,-1.0126,2.82
13.839,1.999,-0.1456,0.5177,2.07
13.839,-0.8243,0.127,-0.3746,0.914
13.839,0.5331,-0.2819,0.2493,0.653
13.839,1.0121,-0.0569,-0.0144,1.014
13.839,-4.0572,-0.0329,-1.0142,4.182
13.839,-0.6258,-0.3459,0.7263,1.019
13.839,-0.0477,-0.3694,0.6134,0.718
13.84,-0.5559,-0.2303,-0.4789,0.769
13.84,0.117,-0.5741,0.1786,0.613
13.84,-3.051,-0.1814,-0.226,3.065
13.84,-0.2305,-0.6281,0.9667,1.176
13.84,-0.7144,-0.5149,0.4523,0.99
13.84,-1.5126,-0.4832,-0.0899,1.59
13.84,1.336,-0.7932,0.6543,1.686
13.84,1.7414,-0.2855,-0.0558,1.765
13.841,-6.5132,0.0974,-1.0479,6.598
13.841,-0.9432,-0.4236,0.9201,1.384
13.841,-0.2963,-0.4589,0.6981,0.886
13.841,-0.5785,-0.1906,-0.1017,0.617
13.841,0.4913,-0.324,-0.0888,0.595
13.841,-0.6314,0.2693,-0.4329,0.812
13.841,0.444,-0.1681,0.7019,0.847
13.841,-1.6756,0.6975,-0.0598,1.816
13.841,-0.0461,0.0421,0.3314,0.337
13.842,1.5001,-0.156,0.7748,1.696
13.842,-0.4741,1.1469,-0.8376,1.497
13.842,-0.9584,0.5866,-0.4464,1.209
13.842,-0.7062,0.462,0.0962,0.849
13.842,1.0736,0.0436,0.3628,1.134
13.842,1.7173,0.2136,0.0124,1.731
13.842,1.6487,0.2328,-0.3715,1.706
13.842,-0.6504,0.8639,-0.83,1.363
13.842,-0.1785,0.3589,-0.0247,0.402
13.843,4.3507,-0.817,0.7385,4.488
13.843,0.5139,0.6277,-0.6812,1.059
13.843,-1.7038,0.4934,-0.7547,1.928
13.843,-0.5138,-0.0469,0.0794,0.522
13.843,-0.7732,0.0037,0.1699,0.792
13.843,-1.3047,-0.0605,-0.0136,1.306
13.843,0.2126,-0.4878,0.0738,0.537
13.844,-0.3394,-0.1617,-0.1347,0.399
13.844,-0.2452,-0.271,-0.0251,0.366
13.844,-0.4438,-0.2177,0.0176,0.495
13.844,1.2618,-0.621,0.1061,1.41
13.844,0.6993,-0.4838,0.2765,0.894
13.844,0.7274,-0.2895,-0.1572,0.799
13.844,-0.9353,-0.0477,-0.2651,0.973
13.844,-0.7822,-0.3128,0.019,0.843
13.844,-0.4649,-0.384,0.1094,0.613
13.845,-0.5241,-0.2735,-0.0249,0.592
13.845,-0.7205,-0.1512,-0.1326,0.748
13.845,-0.6332,-0.0623,-0.0206,0.637
13.845,-0.4558,0.0073,0.1053,0.468
13.845,-0.3652,0.0505,0.1353,0.393
13.845,-0.3064,0.1105,0.1367,0.353
13.845,-0.2507,0.1298,0.1599,0.324
13.845,-0.2073,0.1801,0.1667,0.321
13.845,-0.0853,0.204,0.1403,0.262
13.846,0.0198,0.2232,0.0928,0.243
13.846,0.0701,0.2685,0.017,0.278
13.846,0.0917,0.2541,-0.0468,0.274
13.846,0.1541,0.2588,-0.0844,0.313
13.846,0.2243,0.2588,-0.0866,0.353
13.846,0.2376,0.2635,-0.0436,0.357
13.846,0.2731,0.218,0.011,0.35
13.846,0.2637,0.1342,0.0416,0.299
13.846,0.2334,0.0721,0.0674,0.253
13.847,0.3616,0.0244,0.0526,0.366
13.847,0.414,-0.0329,-0.0695,0.421
13.847,0.4528,-0.126,-0.1914,0.508
13.847,0.1863,-0.3624,0.0763,0.415
13.847,0.2808,-0.4288,-0.0404,0.514
13.847,0.4109,-0.2442,-0.1953,0.516
13.847,0.5539,-0.2702,-0.0275,0.617
13.847,0.5885,-0.3942,0.1071,0.716
13.848,0.5169,-0.4321,0.1369,0.688
13.848,0.4418,-0.4223,0.0381,0.612
13.848,0.3457,-0.3766,-0.041,0.513
13.848,0.2596,-0.3191,-0.0069,0.411
13.848,0.0806,-0.245,0.0494,0.263
13.848,-0.0248,-0.1972,0.0775,0.213
13.848,-0.0904,-0.1375,-0.0063,0.165
13.848,-0.092,0.0129,-0.0085,0.093
13.848,0.4154,-0.2336,-0.0992,0.487
13.849,0.1777,-0.1547,0.061,0.243
13.849,0.0888,-0.095,0.0444,0.137
13.849,-0.2481,0.1177,0.1933,0.336
13.849,-0.1467,0.225,0.29,0.395
13.849,-0.078,0.2748,0.1602,0.328
13.849,0.0851,0.3867,-0.0913,0.406
13.849,0.2041,0.5225,-0.2591,0.618
13.849,0.16,0.5242,-0.315,0.632
13.849,-0.0704,0.4065,-0.1773,0.449
13.85,-0.365,0.3248,-0.0111,0.489
13.85,-0.3577,0.1763,-0.1198,0.416
13.85,-0.3492,0.09,-0.3025,0.471
13.85,-0.3511,0.054,-0.3894,0.527
13.85,-0.2962,-0.025,-0.4359,0.528
13.85,-0.2371,-0.1781,-0.3775,0.48
13.85,-0.1638,-0.3263,-0.3172,0.484
13.85,-0.1456,-0.4959,-0.207,0.557
13.85,-0.082,-0.6199,-0.0997,0.633
13.85,0.0194,-0.6913,-0.0504,0.693
13.851,-0.0042,-0.6311,0.0055,0.631
13.851,-0.1657,-0.638,0.0778,0.664
13.851,-0.2001,-0.5755,0.1906,0.638
13.851,-0.1415,-0.5465,0.3298,0.654
13.851,-0.1789,-0.5032,0.3449,0.636
13.851,-0.1891,-0.3596,0.3003,0.505
13.851,-0.1449,-0.2328,0.2245,0.354
13.851,-0.0918,-0.0727,0.1821,0.216
13.851,0.0587,0.0443,0.132,0.151
13.852,0.2128,0.1468,0.2007,0.327
13.852,0.3663,0.2539,0.2355,0.504
13.852,0.4404,0.3921,0.0522,0.592
13.852,0.4781,0.5468,0.0075,0.726
13.852,0.5286,0.5603,0.0226,0.771
13.852,0.4305,0.5333,0.2074,0.716
13.852,0.4133,0.4799,0.2607,0.685
13.852,0.8386,0.2785,0.1133,0.891
13.852,-0.0067,0.6294,-0.0125,0.63
13.852,-0.2234,0.6954,-0.2148,0.761
13.853,-0.0467,0.5727,-0.281,0.64
13.853,-0.1193,0.5361,-0.2136,0.589
13.853,-0.2017,0.4422,-0.0218,0.487
13.853,-0.275,0.2624,0.1895,0.425
13.853,-0.0786,-0.0271,0.184,0.202
13.853,-0.1831,-0.1443,0.1267,0.265
13.853,-0.9137,-0.1036,0.3831,0.996
13.853,-0.8139,-0.2517,0.377,0.932
13.853,-0.718,-0.2993,0.2332,0.812
13.854,-1.235,-0.7077,0.6212,1.553
13.854,-1.7999,-1.2615,0.5274,2.26
13.854,-1.2763,-1.5876,-0.0647,2.038
13.854,-2.3664,-1.7125,0.4677,2.958
13.854,-2.2869,-1.725,0.8824,2.997
13.854,-1.3325,-1.183,0.7541,1.935
13.855,-1.509,-0.3788,0.6908,1.702
13.855,-1.1101,0.1018,0.5273,1.233
13.855,-0.4588,0.5745,-0.185,0.758
13.855,0.6002,1.2044,-0.0924,1.349
13.855,0.8208,1.6686,-0.0385,1.86
13.855,0.6285,1.3291,-0.4855,1.548
13.855,0.146,0.928,-0.4804,1.055
13.855,0.2224,0.5848,-0.3228,0.704
13.855,0.715,0.254,-0.426,0.87
13.856,1.149,-0.0549,-0.4288,1.228
13.856,1.3439,-0.318,-0.2387,1.402
13.856,1.4152,-0.533,0.1103,1.516
13.856,1.2507,-0.7405,-0.0182,1.454
13.856,1.3406,-0.9573,0.067,1.649
13.856,1.0679,-1.0711,-0.0287,1.513
13.856,0.2578,-0.8979,-0.1301,0.943
13.856,-1.0815,-0.7057,-0.5764,1.414
13.856,0.8827,-1.0683,0.6174,1.517
13.857,-0.282,-0.7827,0.4094,0.927
13.857,0.2025,-0.3994,0.5627,0.719
13.857,-0.2928,-0.074,-0.0343,0.304
13.857,1.1487,-0.0811,0.6077,1.302
13.857,-0.43,0.0933,-0.0721,0.446
13.857,-0.6973,-0.2247,-0.4762,0.874
13.857,-0.3587,-0.1767,-0.1216,0.418
13.857,-0.0262,0.1364,-0.1814,0.228
13.857,0.2124,0.3822,-0.3232,0.544
13.858,0.6059,0.5943,-0.2632,0.889
13.858,0.8891,0.5073,-0.4587,1.122
13.858,1.218,0.4014,-0.5923,1.413
13.858,1.2463,0.1403,-0.8527,1.517
13.858,0.982,0.0277,-0.9162,1.343
13.858,0.6327,0.0227,-0.634,0.896
13.858,0.6849,0.1659,-0.3688,0.795
13.858,0.6307,-0.1212,-0.4126,0.763
13.858,1.5386,-0.6517,-0.6222,1.783
13.859,2.7803,-1.0406,-1.5488,3.348
13.859,4.7015,-1.8064,-3.2386,5.988
13.859,0.7646,-1.5293,6.0481,6.285
13.859,-7.6683,0.1169,11.0916,13.485
13.86,-9.6152,2.9847,15.9309,18.845
13.86,-8.6058,3.9133,1.675,9.601
13.86,-6.3123,0.9649,-2.1381,6.734
13.86,-2.8192,-1.6325,-5.1597,6.102
13.86,-0.4387,-1.8771,-6.681,6.954
13.861,0.2629,-0.6758,-3.1488,3.231
13.861,0.797,1.3791,-3.3892,3.745
13.861,1.6594,1.1651,-3.1862,3.777
13.861,1.8289,1.2567,-1.3271,2.586
13.861,1.7965,0.9919,-0.7924,2.2
13.861,1.3033,-0.3863,0.0533,1.36
13.861,0.8408,-1.636,0.5403,1.917
13.862,1.4518,-1.4836,0.3518,2.105
13.862,0.9516,-1.5009,0.482,1.841
13.862,0.3785,-1.3508,0.627,1.537
13.862,0.2749,-0.7036,0.5731,0.948
13.862,0.3679,-0.0023,0.2577,0.449
13.862,0.5194,0.3661,-0.1671,0.657
13.862,0.5754,0.4208,-0.4089,0.822
13.862,0.4534,0.3512,-0.4262,0.715
13.862,0.2734,0.0043,-0.4439,0.521
13.863,0.2265,-0.1964,-0.4599,0.549
13.863,0.0784,-0.3754,-0.3582,0.525
13.863,0.0486,-0.351,-0.2495,0.433
13.863,0.0867,-0.2908,-0.1872,0.357
13.863,-0.1686,-0.4266,-0.193,0.498
13.863,-0.0653,-0.2825,-0.3218,0.433
13.863,-0.1032,-0.294,-0.2364,0.391
13.863,-0.1802,-0.2384,-0.1253,0.324
13.863,-0.1842,-0.085,-0.2007,0.285
13.864,-0.2612,-0.0584,-0.348,0.439
13.864,-0.4787,-0.058,-0.4689,0.673
13.864,-0.8513,-0.1891,-0.4871,0.999
13.864,-1.0166,-0.2769,-0.5842,1.205
13.864,-0.994,-0.1734,-0.5112,1.131
13.864,-0.744,-0.1822,-0.3797,0.855
13.864,-0.5111,-0.0907,-0.6026,0.795
13.864,-0.1416,-0.1497,-0.5943,0.629
13.864,0.2824,-0.3232,-0.5269,0.68
13.865,1.6841,0.2802,-0.3308,1.739
13.865,1.512,0.505,0.2779,1.618
13.865,1.0229,0.6291,0.4539,1.284
13.865,0.7306,0.5857,0.8843,1.288
13.865,0.6351,0.633,1.1877,1.488
13.865,0.6634,0.8714,1.4504,1.817
13.865,0.5931,1.033,1.7157,2.089
13.865,0.5123,0.8955,1.7692,2.048
13.865,0.2921,0.6815,1.5883,1.753
13.866,0.1674,0.3483,1.0331,1.103
13.866,0.0601,0.0871,0.4265,0.439
13.866,-0.0333,-0.0925,-0.1672,0.194
13.866,-0.0899,-0.1379,-0.6169,0.638
13.866,-0.1022,-0.1021,-0.9918,1.002
13.866,-0.0515,-0.0781,-1.2608,1.264
13.866,0.0095,-0.0303,-1.3956,1.396
13.866,0.1051,-0.0565,-1.3891,1.394
13.867,0.0233,0.4071,6.7354,6.748
13.867,0.3711,0.0951,4.7615,4.777
13.867,0.3312,-0.6801,-2.1728,2.301
13.867,0.1038,-0.6892,-2.2217,2.328
13.867,-0.0612,-0.2726,-1.0543,1.091
13.867,-0.0595,0.2151,-0.5422,0.586
13.867,0.2117,0.3771,-0.7675,0.881
13.868,0.3014,0.1947,-1.1476,1.202
13.868,0.1722,-0.1405,-1.1782,1.199
13.868,0.0366,-0.3821,-1.0237,1.093
13.868,0.0056,-0.6256,-1.0814,1.249
13.868,-0.285,-0.7588,-1.1865,1.437
13.868,-0.406,-0.538,-0.6294,0.922
13.868,-0.1561,0.0339,0.5365,0.56
13.868,0.038,-0.0091,-0.2957,0.298
13.868,0.1578,-0.0137,-0.3033,0.342
13.869,0.3377,-0.0829,-0.3882,0.521
13.869,0.4271,-0.0827,-0.4449,0.622
13.869,0.5528,0.0011,-0.4686,0.725
13.869,0.7129,0.2235,-0.3345,0.819
13.869,0.6971,0.1635,-0.3511,0.797
13.869,0.5152,0.1131,-0.4088,0.667
13.869,0.3244,0.1967,-0.2212,0.439
13.869,0.2195,0.2013,-0.0082,0.298
13.869,-0.0049,0.2083,0.2519,0.327
13.87,-0.1885,0.2105,0.3707,0.466
13.87,-0.3431,0.1387,0.1717,0.408
13.87,-0.218,0.1721,0.1664,0.324
13.87,-0.1146,0.16,0.0921,0.217
13.87,0.1564,0.167,-0.8469,0.877
13.87,0.0942,0.2625,-1.5591,1.584
13.87,-0.2293,0.0544,-0.6642,0.705
13.87,-0.437,-0.0793,0.3317,0.554
13.87,-0.5199,-0.1102,0.7277,0.901
13.87,-0.4426,-0.0789,0.582,0.735
13.871,-0.2293,-0.0764,0.6738,0.716
13.871,-0.0306,-0.2435,0.8428,0.878
13.871,0.0268,-0.3771,0.6998,0.795
13.871,0.108,-0.3408,0.5509,0.657
13.871,-0.1221,-0.0537,0.372,0.395
13.871,-0.0685,0.0729,0.4286,0.44
13.871,0.1399,0.1156,0.5067,0.538
13.871,0.018,-0.033,-0.1055,0.112
13.872,0.0084,-0.2269,-0.1184,0.256
13.872,0.0394,-0.4086,0.175,0.446
13.872,-0.0489,-0.4754,0.3297,0.581
13.872,-0.1967,-0.4369,0.3935,0.62
13.872,-0.3492,-0.3005,0.3253,0.564
13.872,-0.3679,-0.1021,0.2184,0.44
13.872,-0.4201,-0.021,-0.0967,0.432
13.872,-0.3553,0.0337,-0.2038,0.411
13.872,-0.1997,0.0644,-0.2485,0.325
13.872,-0.228,-0.0005,-0.4815,0.533
13.873,-0.2419,-0.0629,-0.3894,0.463
13.873,-0.3085,-0.0965,-0.2692,0.421
13.873,-0.2679,-0.0751,-0.0595,0.284
13.873,-0.3017,-0.1182,-0.1931,0.377
13.873,-0.0373,-0.0536,-0.1611,0.174
13.873,0.0972,-0.0487,-0.4199,0.434
13.873,0.2121,-0.0128,-0.462,0.509
13.873,0.1521,-0.1083,-0.7462,0.769
13.873,0.1827,-0.0602,-0.4811,0.518
13.874,0.1676,-0.0887,-0.4791,0.515
13.874,0.0831,-0.1745,-0.4509,0.491
13.874,0.0916,-0.2364,-0.4013,0.475
13.874,0.2432,0.0007,-0.3856,0.456
13.874,0.1029,0.1203,-0.1478,0.217
13.874,-0.0777,-0.047,-0.0182,0.093
13.874,-0.2506,-0.1782,-0.0468,0.311
13.874,-0.3797,-0.2518,-0.0137,0.456
13.874,-0.3002,-0.0984,-0.1388,0.345
13.875,-0.2512,0.2963,-0.1588,0.42
13.875,-0.5124,0.1671,0.1247,0.553
13.875,-0.6847,0.0069,0.1382,0.699
13.875,-0.7689,-0.1745,0.1688,0.806
13.875,-0.6932,-0.1693,0.1282,0.725
13.875,-0.5702,-0.0901,0.2936,0.648
13.875,-0.5022,-0.0684,0.3406,0.611
13.875,-0.348,0.111,0.3052,0.476
13.875,-0.1363,0.2303,0.5243,0.589
13.876,-0.0495,0.1631,0.7889,0.807
13.876,-0.0086,-0.0618,0.7927,0.795
13.876,0.0773,-0.2887,0.7698,0.826
13.876,0.1485,-0.3839,0.5912,0.72
13.876,0.2486,-0.3452,0.3482,0.55
13.876,0.1101,-0.1918,0.0504,0.227
13.876,0.218,-0.1509,-0.1375,0.299
13.876,0.3904,-0.1171,-0.1538,0.436
13.876,0.3193,-0.0954,-0.242,0.412
13.876,0.294,-0.1453,-0.2635,0.421
13.877,0.1061,-0.1833,-0.3142,0.379
13.877,0.0278,-0.2474,-0.2199,0.332
13.877,0.0013,-0.297,-0.148,0.332
13.877,-0.0999,-0.3036,-0.0623,0.326
13.877,-0.2017,-0.3101,-0.0364,0.372
13.877,-0.0151,-0.2904,0.1046,0.309
13.877,-0.0968,-0.2587,0.0234,0.277
13.877,0.0051,-0.2199,0.0093,0.22
13.877,0.016,-0.1382,-0.0356,0.144
13.878,0.0364,-0.0207,-0.0857,0.095
13.878,-0.2395,0.1421,-0.2954,0.406
13.878,-0.4411,0.2042,-0.3377,0.592
13.878,-0.982,0.319,-0.2464,1.061
13.878,0.0861,0.1682,-0.0855,0.207
13.878,0.3456,0.2089,-0.2379,0.469
13.878,-0.1091,0.2375,-0.1801,0.317
13.878,-0.4842,0.2208,0.0594,0.535
13.878,-0.3664,0.1132,0.3107,0.493
13.878,-0.0859,0.0033,0.3136,0.325
13.879,0.1515,-0.0778,0.1709,0.241
13.879,0.1526,-0.099,0.0071,0.182
13.879,0.044,-0.0437,-0.1058,0.123
13.879,0.0407,-0.0077,-0.0964,0.105
13.879,-0.0035,0.0331,-0.1583,0.162
13.879,0.0501,0.026,-0.2102,0.218
13.879,0.0795,0.0141,-0.1569,0.176
13.879,0.0754,0.0452,-0.1106,0.141
13.879,-0.0123,0.0309,-0.0834,0.09
13.879,0.0219,0.0214,0.0609,0.068
13.88,-0.0323,0.0191,0.1478,0.153
13.88,-0.0673,0.055,0.2466,0.261
13.88,-0.0879,0.0837,0.2449,0.273
13.88,0.0326,0.1171,0.2433,0.272
13.88,0.0148,0.1815,0.2251,0.29
13.88,-0.2248,0.1909,0.1141,0.316
13.88,-0.2991,0.1525,0.0725,0.343
13.88,-0.1968,0.0878,0.0906,0.234
13.88,-0.1042,0.0949,0.0441,0.148
13.881,-0.0688,0.0973,-0.031,0.123
13.881,-0.1217,0.0852,-0.0511,0.157
13.881,-0.1647,0.0326,0.0432,0.173
13.881,-0.2771,-0.1322,-0.037,0.309
13.881,-0.1005,-0.2682,0.1767,0.337
13.881,-0.0032,-0.1507,0.1853,0.239
13.881,0.0608,0.0168,0.0799,0.102
13.881,0.1272,0.0932,-0.0179,0.159
13.881,0.1959,-0.0002,-0.0294,0.198
13.881,0.1234,-0.1077,-0.0193,0.165
13.882,0.089,-0.1506,0.0243,0.177
13.882,0.0187,-0.1051,-0.0109,0.107
13.882,0.0319,-0.062,-0.0771,0.104
13.882,0.0188,-0.0261,-0.172,0.175
13.882,-0.0684,-0.0332,-0.1834,0.199
13.882,-0.1079,-0.0882,-0.1734,0.222
13.882,-0.0995,-0.1765,-0.1182,0.235
13.883,-0.1748,-0.2145,-0.1037,0.295
13.883,-0.1616,-0.2238,-0.0822,0.288
13.883,-0.12,-0.2283,-0.037,0.261
13.883,-0.0906,-0.1778,-0.0182,0.2
13.883,0.0391,-0.0986,0.0457,0.116
13.883,0.0898,-0.022,0.0691,0.115
13.883,0.0233,-0.0028,0.0352,0.042
13.883,-0.0238,-0.0148,0.0396,0.048
13.884,-0.03,-0.0028,0.0389,0.049
13.884,-0.0477,0.0068,0.024,0.054
13.884,-0.1364,0.0542,0.0045,0.147
13.884,-0.1816,0.0585,0.002,0.191
13.884,-0.2097,0.058,0.0091,0.218
13.884,-0.1617,0.0148,0.0139,0.163
13.884,-0.0785,0.017,0.0451,0.092
13.884,-0.0886,-0.0069,0.0548,0.104
13.884,-0.158,-0.0021,0.0336,0.162
13.884,-0.1392,0.0003,0.0292,0.142
13.885,-0.1135,0.0311,-0.0109,0.118
13.885,-0.0642,0.0735,-0.0531,0.111
13.885,0.1961,0.099,0.0356,0.223
13.885,0.3747,0.2239,0.0837,0.444
13.885,-0.0022,0.1294,-0.115,0.173
13.885,0.0132,-0.0425,-0.0541,0.07
13.885,0.0212,-0.0825,-0.0321,0.091
13.885,0.055,-0.0628,0.0155,0.085
13.885,0.0884,0.0113,-0.0133,0.09
13.886,0.1069,0.0777,-0.1131,0.174
13.886,0.2009,0.0842,-0.1029,0.241
13.886,0.1727,0.1025,-0.1261,0.237
13.886,0.1895,0.059,-0.121,0.232
13.886,0.1631,0.0277,-0.0734,0.181
13.886,0.1604,0.0133,-0.0525,0.169
13.886,0.186,-0.02,0.0059,0.187
13.886,0.2258,-0.0624,0.0329,0.237
13.886,0.2678,-0.0547,0.0408,0.276
13.886,0.1816,-0.0542,-0.02,0.191
13.887,0.0869,-0.094,-0.0802,0.151
13.887,0.0242,-0.0979,-0.1019,0.143
13.887,-0.0305,-0.0804,-0.0335,0.092
13.887,-0.0938,-0.0535,0.0013,0.108
13.887,-0.2917,0.0063,-0.0945,0.307
13.887,-0.5858,0.0253,-0.0921,0.594
13.887,-0.5554,-0.0484,-0.0113,0.558
13.887,-0.3578,-0.0788,0.0071,0.366
13.887,-0.4689,-0.0828,0.0157,0.476
13.888,-0.4884,-0.054,0.0793,0.498
13.888,-0.6158,-0.0324,-0.0267,0.617
13.888,-0.8583,0.025,0.2261,0.888
13.888,-0.5965,-0.0467,0.1132,0.609
13.888,0.8553,-0.1303,0.1249,0.874
13.888,-0.521,0.0587,-0.2625,0.586
13.888,0.1477,-0.1039,0.0217,0.182
13.888,0.6174,-0.1802,-0.0004,0.643
13.888,-0.1131,-0.1274,-0.1637,0.236
13.889,-0.2336,-0.1774,0.1368,0.324
13.889,0.0217,-0.2345,0.2797,0.366
13.889,0.1076,-0.2605,0.1505,0.32
13.889,0.029,-0.2626,-0.0001,0.264
13.889,-0.0948,-0.2359,-0.0148,0.255
13.889,-0.1994,-0.1591,0.0157,0.256
13.889,-0.2203,-0.0753,-0.0158,0.233
13.889,-0.0888,-0.0273,-0.0089,0.093
13.889,0.1067,-0.013,0.0388,0.114
13.89,0.0795,0.0635,0.0625,0.119
13.89,0.0376,0.1304,0.0836,0.159
13.89,0.0669,0.1732,0.0875,0.205
13.89,-0.0119,0.228,0.0816,0.242
13.89,0.0316,0.2015,0.1019,0.228
13.89,0.1208,0.2348,0.0935,0.28
13.89,0.1625,0.2513,0.047,0.303
13.89,0.1854,0.2606,-0.0161,0.32
13.89,0.125,0.2579,-0.0982,0.303
13.89,0.1773,0.2289,-0.0727,0.299
13.891,0.2254,0.2048,-0.1071,0.323
13.891,0.25,0.1999,-0.0843,0.331
13.891,0.1457,0.2045,-0.0905,0.267
13.891,0.0862,0.1016,0.0558,0.144
13.891,0.177,0.1805,0.1136,0.277
13.891,-4.4438,0.3285,0.0331,4.456
13.891,-1.0161,-0.439,1.5887,1.936
13.892,0.6113,-0.221,0.6274,0.903
13.892,0.8044,-0.0081,-0.2402,0.84
13.892,0.3182,0.0063,-0.587,0.668
13.892,-0.5114,-0.125,-0.3268,0.62
13.892,0.2255,-0.3017,-0.081,0.385
13.892,-1.0555,-0.3036,-0.1695,1.111
13.892,-0.0503,-0.5661,0.0389,0.57
13.892,-0.3271,-0.434,-0.1543,0.565
13.892,-0.2209,-0.3689,-0.0033,0.43
13.892,0.3392,-0.2752,-0.0318,0.438
13.893,0.5468,-0.2868,-0.0483,0.619
13.893,0.1608,-0.155,-0.4663,0.517
13.893,-0.8233,-0.1739,-0.229,0.872
13.893,-1.0066,-0.2789,-0.1087,1.05
13.893,1.8662,-0.4339,0.0932,1.918
13.893,1.6022,-0.1347,-0.348,1.645
13.894,3.7976,0.2095,-0.9473,3.92
13.894,-1.6661,0.5798,-1.237,2.155
13.894,-4.2824,-0.0183,0.782,4.353
13.894,0.9831,-0.439,1.5507,1.888
13.894,3.3152,0.0562,0.5436,3.36
13.894,-1.9625,0.5747,-0.836,2.209
13.895,4.7067,0.3231,0.2589,4.725
13.895,-0.6288,0.3968,-1.04,1.278
13.895,-1.0911,-0.1701,0.1985,1.122
13.895,0.9909,-0.213,0.5124,1.136
13.895,0.9604,-0.0265,0.0931,0.965
13.895,-0.4965,0.3533,0.0137,0.61
13.896,-1.1097,0.6133,0.1414,1.276
13.896,-0.7733,0.4882,0.2701,0.954
13.896,-0.688,0.3012,0.2405,0.789
13.896,-0.6128,0.1885,0.2926,0.705
13.896,-0.5379,0.2575,0.2734,0.656
13.896,-0.4855,0.2763,0.2904,0.63
13.896,0.0419,0.1373,0.4222,0.446
13.896,-0.1395,0.082,0.249,0.297
13.896,-0.267,-0.0568,0.1366,0.305
13.897,-0.4703,-0.1502,-0.023,0.494
13.897,-0.6587,-0.1812,-0.1753,0.705
13.897,-0.8162,-0.1811,-0.261,0.876
13.897,-0.8307,-0.2049,-0.2943,0.905
13.897,-0.7573,-0.2478,-0.249,0.835
13.897,-0.6751,-0.3145,-0.1991,0.771
13.897,-0.8469,-0.3405,-0.173,0.929
13.898,-0.6489,-0.3641,-0.1089,0.752
13.898,-0.4758,-0.3088,-0.1431,0.585
13.898,-0.3923,-0.2583,-0.1989,0.51
13.898,-0.2237,-0.227,-0.188,0.37
13.898,-0.1154,-0.1957,-0.1198,0.257
13.898,-0.1054,-0.1884,-0.0853,0.232
13.898,0.0624,-0.2049,-0.0319,0.217
13.899,-2.2072,-0.1545,-0.3994,2.248
13.899,-1.421,-0.4866,1.2416,1.949
13.899,4.5288,-0.5458,0.6478,4.607
13.899,0.1557,0.0403,-1.5553,1.564
13.899,-0.6148,-0.1222,-0.8695,1.072
13.899,-1.5429,-0.325,0.353,1.616
13.899,0.4737,-0.4346,0.9979,1.187
13.9,0.4252,-0.2596,0.1211,0.513
13.9,-0.2289,-0.2331,-0.2843,0.433
13.9,-0.1654,-0.1659,0.0268,0.236
13.9,-2.4579,-0.0868,0.6507,2.544
13.9,3.6489,-0.1466,0.9574,3.775
13.9,-0.6177,0.408,-1.0858,1.314
13.9,-1.0521,0.0395,-0.442,1.142
13.9,1.0679,-0.19,0.5573,1.219
13.901,-0.1836,0.0803,-0.0236,0.202
13.901,0.1026,0.1662,-0.0951,0.217
13.901,-0.9547,0.1947,0.0026,0.974
13.901,0.0738,0.1753,0.4373,0.477
13.901,-0.1439,0.297,0.0424,0.333
13.901,-0.3383,0.323,-0.0585,0.471
13.901,-3.1256,0.2365,-0.1258,3.137
13.901,-0.7354,-0.17,0.7729,1.08
13.901,2.4994,-0.0479,0.5377,2.557
13.902,1.096,0.2461,-0.5601,1.255
13.902,-2.5225,0.124,-0.5842,2.592
13.902,1.4791,-0.1605,0.5318,1.58
13.902,0.2131,0.0094,-0.1292,0.249
13.902,-0.891,-0.0814,-0.1178,0.902
13.902,1.1896,-0.0574,0.0085,1.191
13.902,-1.2263,0.0432,-0.5953,1.364
13.902,-0.4611,-0.1742,0.2418,0.549
13.902,0.165,-0.0902,0.206,0.279
13.903,-0.1499,-0.1426,-0.2003,0.288
13.903,-0.2209,-0.2713,-0.1739,0.391
13.903,0.0027,-0.3043,-0.0782,0.314
13.903,-4.933,-0.4758,-0.0734,4.956
13.903,0.5481,-0.8767,1.6087,1.912
13.903,1.6712,-0.2471,-0.0534,1.69
13.903,1.5784,-0.034,-0.7932,1.767
13.904,1.3793,0.2004,-1.3097,1.913
13.904,-2.9396,-0.0767,-0.6243,3.006
13.904,-0.0354,-0.2796,1.1083,1.144
13.904,-3.4957,-0.0856,0.1214,3.499
13.904,3.0992,-0.1596,1.1175,3.298
13.905,0.4411,0.639,-0.7406,1.073
13.905,-2.4875,0.421,-0.1466,2.527
13.905,-0.1959,0.3585,1.0568,1.133
13.905,0.431,0.4538,0.3623,0.723
13.905,-0.2564,0.1762,-0.2593,0.405
13.905,0.1406,-0.0342,-0.1272,0.193
13.906,-2.9843,-0.1177,-0.4232,3.016
13.906,-0.1544,-0.4162,1.5808,1.642
13.906,7.0486,0.5188,0.242,7.072
13.906,-4.0264,0.5424,-2.6595,4.856
13.906,-1.9961,-0.5692,0.8509,2.243
13.906,1.5234,-0.2719,1.2701,2.002
13.906,0.0463,0.1109,-0.497,0.511
13.907,-0.7103,-0.0301,-0.5038,0.871
13.907,-0.1432,0.1135,0.1729,0.252
13.907,-0.1569,0.3453,0.2782,0.47
13.907,-0.0786,0.3402,0.1567,0.383
13.907,0.092,0.2682,-0.0432,0.287
13.907,0.0424,0.1532,-0.1685,0.232
13.907,0.0884,0.0575,-0.1621,0.193
13.908,0.2061,0.0336,-0.1249,0.243
13.908,0.2021,0.0146,-0.1406,0.247
13.908,0.1005,-0.0116,-0.1469,0.178
13.908,0.1118,-0.0832,-0.1103,0.178
13.908,0.224,-0.1212,-0.1169,0.28
13.908,0.2671,-0.1759,-0.1521,0.354
13.908,-3.7523,-0.2496,-0.1345,3.763
13.909,5.4221,-0.462,1.232,5.58
13.909,-2.7835,-0.0097,-1.33,3.085
13.909,1.1268,-0.4684,0.2133,1.239
13.909,0.0672,-0.2239,-0.049,0.239
13.909,-0.6017,-0.2498,-0.0406,0.653
13.909,0.1736,-0.2232,0.0618,0.289
13.909,0.1952,0.0041,-0.1892,0.272
13.909,-0.1683,0.1284,-0.2438,0.323
13.91,-1.5016,0.2286,-0.2842,1.545
13.91,0.8839,0.2402,0.5769,1.082
13.91,1.4461,0.6175,-0.5399,1.663
13.91,-2.117,0.3635,-0.8537,2.311
13.91,-0.6124,0.2055,-0.0155,0.646
13.91,0.9565,0.2938,0.0948,1.005
13.91,-0.1923,0.2936,-0.292,0.457
13.91,-4.7011,0.071,-0.078,4.702
13.911,2.906,0.016,1.2309,3.156
13.911,-0.0896,0.181,-0.2867,0.351
13.911,0.0349,0.004,-0.3688,0.37
13.911,0.665,-0.1751,0.0462,0.689
13.911,-1.0183,-0.1509,-0.4594,1.127
13.911,-0.5478,-0.373,0.009,0.663
13.911,-0.8997,-0.2817,0.0092,0.943
13.911,2.2971,-0.2838,0.402,2.349
13.912,-2.6487,-0.1043,-0.6731,2.735
13.912,-1.1449,-0.2859,0.2657,1.21
13.912,1.4776,-0.2306,0.2575,1.518
13.912,0.124,-0.2496,-0.1827,0.333
13.912,-1.0965,-0.185,-0.4282,1.192
13.912,2.431,-0.1443,-0.0808,2.437
13.912,-0.738,0.09,-0.7933,1.087
13.912,-1.2044,0.0802,-0.1601,1.218
13.912,-2.2911,0.1517,0.2929,2.315
13.913,0.0072,0.0487,0.6067,0.609
13.913,0.0958,0.0606,0.2364,0.262
13.913,0.9177,0.0557,0.031,0.92
13.913,1.0222,0.0819,-0.2151,1.048
13.913,1.209,0.0483,-0.2291,1.231
13.913,-0.3029,0.0793,-0.3645,0.48
13.913,1.2729,-0.0643,-0.0159,1.275
13.913,-0.1027,0.0312,-0.3434,0.36
13.914,-3.5255,0.0477,-0.094,3.527
13.914,0.3276,-0.1174,0.6381,0.727
13.914,1.2927,0.0881,0.1382,1.303
13.914,1.6387,0.1835,-0.2067,1.662
13.914,2.5099,0.2549,-0.3391,2.545
13.914,-1.1987,0.3979,-0.8659,1.531
13.914,-0.9608,0.1655,-0.2521,1.007
13.914,1.0675,0.0171,0.0481,1.069
13.915,0.4669,0.0553,-0.4076,0.622
13.915,-0.2783,0.072,-0.443,0.528
13.915,0.0015,0.1126,-0.1042,0.153
13.915,0.1072,0.1604,0.059,0.202
13.915,-0.0813,0.0623,0.0569,0.117
13.915,-0.5686,-0.0572,-0.0546,0.574
13.915,-3.5695,-0.1598,0.0597,3.574
13.915,5.0599,-0.6496,1.0516,5.209
13.915,1.8168,-0.0584,-1.323,2.248
13.916,-4.6733,-0.0439,-1.0097,4.781
13.916,-0.3771,-0.3187,0.75,0.898
13.916,0.594,-0.1247,0.0805,0.612
13.916,-2.296,-0.2967,-0.0741,2.316
13.916,0.534,-0.4757,-0.0628,0.718
13.916,1.4513,-0.1764,-0.4747,1.537
13.916,-0.8854,0.0078,-0.7248,1.144
13.916,-1.3159,-0.0209,-0.1024,1.32
13.917,0.2385,-0.0759,0.133,0.283
13.917,-1.3092,-0.0615,-0.3558,1.358
13.917,0.2659,-0.2646,0.0015,0.375
13.917,-0.4093,-0.1758,-0.0484,0.448
13.917,2.5705,-0.1804,0.0754,2.578
13.917,0.8501,0.047,-0.9565,1.28
13.917,-2.2931,0.0758,-0.4442,2.337
13.917,0.3281,-0.144,0.5966,0.696
13.918,1.0274,-0.0912,-0.0137,1.031
13.918,0.2885,-0.0959,-0.4443,0.538
13.918,0.1785,-0.0765,-0.1941,0.275
13.918,0.2243,0.0647,0.01,0.234
13.918,0.232,0.1723,0.0848,0.301
13.918,-2.9129,0.3801,-0.0457,2.938
13.918,-1.1218,-0.0075,0.9553,1.473
13.918,1.9752,-0.3349,0.4916,2.063
13.919,4.2108,-0.4206,-0.292,4.242
13.919,-0.3514,0.0102,-1.3132,1.359
13.919,-3.7992,0.1346,-0.2482,3.81
13.919,0.5449,-0.2669,0.7876,0.994
13.919,1.4936,-0.3765,0.0377,1.541
13.919,-0.0667,-0.3448,-0.2603,0.437
13.919,-0.387,-0.0647,-0.063,0.397
13.919,-0.0461,0.3226,-0.2211,0.394
13.919,-0.3505,0.4823,-0.3357,0.684
13.92,-0.6459,0.4243,-0.1705,0.791
13.92,-0.4689,0.3832,-0.0576,0.608
13.92,-0.2237,0.3754,-0.1544,0.464
13.92,-0.0631,0.3128,-0.22,0.388
13.92,0.0797,0.2192,-0.2023,0.309
13.92,0.2339,0.2166,-0.0943,0.332
13.92,0.3709,0.2617,-0.0059,0.454
13.92,-0.6083,0.2997,-0.0177,0.678
13.921,0.1969,0.089,0.0834,0.232
13.921,0.5576,-0.1788,-0.0517,0.588
13.921,2.4578,-0.5682,-0.1434,2.527
13.921,0.9008,-0.4959,-0.5747,1.178
13.921,-1.6843,-0.3662,-0.3751,1.764
13.921,-0.0237,-0.4638,0.3023,0.554
13.921,0.6149,-0.4107,0.131,0.751
13.921,-0.1717,-0.3338,-0.1474,0.403
13.921,-0.5897,-0.2929,-0.072,0.662
13.922,-0.3861,-0.2328,0.0369,0.452
13.922,-0.188,-0.1681,0.0672,0.261
13.922,-0.1318,-0.0987,-0.0313,0.168
13.922,0.0599,-0.0604,-0.0554,0.102
13.922,0.3682,-0.0461,-0.127,0.392
13.922,0.5374,-0.0199,-0.1792,0.567
13.922,0.613,0.023,-0.1735,0.637
13.922,0.6311,0.018,-0.1341,0.645
13.923,0.5656,0.001,-0.0228,0.566
13.923,-2.0167,-0.4699,0.2958,2.092
13.923,4.3456,-0.6606,0.3743,4.411
13.923,-1.5312,0.4467,-0.702,1.743
13.923,-2.9077,0.6684,0.5403,3.032
13.923,4.0674,-0.1571,0.6062,4.115
13.924,-1.5566,0.0151,-0.8093,1.754
13.924,0.65,-0.4749,-0.1731,0.823
13.924,-1.3371,-0.2259,-0.1277,1.362
13.924,-1.0749,-0.0681,0.0875,1.081
13.924,0.2647,0.0203,0.1374,0.299
13.924,-0.102,0.209,-0.0593,0.24
13.924,-0.4356,0.3473,-0.1152,0.569
13.924,-0.0209,0.3253,-0.0878,0.338
13.925,0.3673,0.2197,-0.2257,0.484
13.925,0.5208,0.1358,-0.3615,0.648
13.925,0.593,0.0425,-0.2966,0.664
13.925,0.5338,-0.0507,-0.1699,0.562
13.925,0.4864,-0.1152,-0.0529,0.503
13.925,0.472,-0.1723,-0.0053,0.502
13.925,0.3805,-0.184,-0.0149,0.423
13.925,0.3267,-0.1766,-0.06,0.376
13.925,0.28,-0.1739,-0.0547,0.334
13.925,0.1925,-0.1689,-0.03,0.258
13.926,0.2244,-0.1496,0.0214,0.27
13.926,0.2231,-0.1088,-0.0201,0.249
13.926,0.1283,-0.1302,-0.0297,0.185
13.926,0.1484,0.0037,-0.0915,0.174
13.926,0.15,0.0992,0.0022,0.18
13.926,0.066,0.0751,0.0386,0.107
13.926,0.0353,0.0199,0.0123,0.042
13.926,0.0599,-0.0304,-0.0404,0.078
13.927,0.1279,-0.1117,-0.1053,0.2
13.927,0.1604,-0.1355,-0.1631,0.266
13.927,0.1529,-0.1474,-0.1851,0.282
13.927,0.1364,-0.2023,-0.1616,0.293
13.927,0.1299,-0.1735,-0.1,0.239
13.927,0.1235,-0.1017,-0.0336,0.163
13.927,0.2125,-0.0133,-0.0512,0.219
13.927,0.182,0.0416,-0.112,0.218
13.927,0.0724,0.0606,-0.1803,0.204
13.927,0.1183,0.0629,-0.1583,0.207
13.928,0.0634,0.1154,-0.144,0.195
13.928,-0.0059,0.1488,-0.19,0.241
13.928,-0.0729,0.0841,-0.1909,0.221
13.928,-0.7064,0.0268,-0.1108,0.716
13.928,-4.1763,0.2634,-0.0287,4.185
13.928,0.5816,-0.3318,0.6792,0.954
13.928,3.9503,-0.4341,0.4158,3.996
13.928,0.453,-0.0343,-0.5312,0.699
13.929,-4.6944,0.1524,-0.5195,4.726
13.929,-0.2021,-0.3925,0.8111,0.923
13.929,1.026,-0.2245,0.7043,1.265
13.929,-0.8852,0.0747,0.1364,0.899
13.929,-1.0311,0.0748,0.0855,1.037
13.929,0.0224,0.0939,0.2119,0.233
13.929,-1.2735,0.2899,0.0492,1.307
13.929,-0.3191,0.0769,0.3288,0.465
13.93,0.1972,-0.0736,0.381,0.435
13.93,1.3126,-0.3124,0.266,1.375
13.93,1.8553,-0.3215,-0.0042,1.883
13.93,-1.0899,0.0255,-0.4079,1.164
13.93,-1.0089,-0.0294,-0.0582,1.011
13.93,-0.3092,0.0209,0.1937,0.365
13.93,0.7753,0.0258,0.1688,0.794
13.93,0.4113,0.1309,-0.1783,0.467
13.93,-1.6801,0.3531,-0.4291,1.77
13.931,1.5036,0.0731,0.1327,1.511
13.931,1.3306,0.1854,-0.109,1.348
13.931,-2.2654,0.4146,-0.4104,2.339
13.931,0.0177,0.0844,0.3016,0.314
13.931,0.6114,0.1274,0.3153,0.7
13.931,1.3592,0.1631,0.0641,1.37
13.931,-1.5866,0.5357,-0.4471,1.733
13.931,-0.2122,0.3248,-0.0112,0.388
13.932,0.0914,0.353,0.0517,0.368
13.932,0.4278,0.3215,-0.0313,0.536
13.932,-1.2415,0.333,-0.4228,1.353
13.932,0.7877,-0.1167,-0.0807,0.8
13.932,0.6052,-0.1931,-0.1599,0.655
13.932,-1.1015,0.0366,-0.4164,1.178
13.932,0.932,-0.2024,-0.1832,0.971
13.933,-0.1433,-0.1615,-0.2635,0.341
13.933,0.2737,-0.3023,0.1608,0.438
13.933,-1.3202,-0.2422,0.1881,1.355
13.933,-0.0858,-0.1558,0.4975,0.528
13.933,-0.0344,0.0929,0.2858,0.303
13.933,-0.5818,0.3534,0.0578,0.683
13.933,-0.7802,0.4342,-0.0646,0.895
13.933,-0.1608,0.276,0.0403,0.322
13.934,1.9563,-0.1306,0.1929,1.97
13.934,-0.7355,-0.1041,-0.4583,0.873
13.934,-1.2012,-0.2018,-0.3713,1.273
13.934,0.5263,-0.3496,0.0495,0.634
13.934,0.6576,-0.3059,0.049,0.727
13.934,0.2746,-0.248,-0.1331,0.393
13.934,0.4881,-0.2691,-0.1264,0.571
13.934,0.6808,-0.3546,-0.0125,0.768
13.934,0.6444,-0.4424,0.0512,0.783
13.934,0.5697,-0.4895,0.0239,0.751
13.935,0.5,-0.5031,0.0157,0.709
13.935,0.342,-0.3684,0.0101,0.503
13.935,0.2222,-0.1719,0.0286,0.282
13.935,0.1666,0.0221,-0.0099,0.168
13.935,0.149,0.1392,0.0069,0.204
13.935,0.0886,0.1774,-0.0194,0.199
13.935,-0.0048,0.218,-0.0482,0.223
13.935,-0.1212,0.2871,-0.0128,0.312
13.935,-0.2776,0.3778,0.0174,0.469
13.936,-0.4263,0.3918,0.0951,0.587
13.936,-0.5554,0.358,0.1559,0.679
13.936,-0.6509,0.3506,0.1522,0.755
13.936,-0.6844,0.3503,0.1942,0.793
13.936,-0.6158,0.2448,0.2317,0.702
13.936,-0.5097,0.1562,0.2696,0.597
13.936,-0.4237,0.0486,0.2504,0.495
13.936,-0.3432,-0.0636,0.1956,0.4
13.936,-0.2706,-0.1686,0.0955,0.333
13.936,-0.2225,-0.1898,0.0052,0.292
13.937,-0.2109,-0.1703,-0.0275,0.272
13.937,-0.183,-0.1317,-0.0504,0.231
13.937,-0.1797,-0.0789,-0.0323,0.199
13.937,-0.1289,0.0049,-0.0234,0.131
13.937,-0.0999,0.0934,-0.0167,0.138
13.937,-0.0568,0.0981,-0.0145,0.114
13.937,-0.0351,0.0359,-0.0242,0.056
13.937,-0.1303,-0.0095,-0.0577,0.143
13.937,0.2668,-0.1002,-0.0578,0.291
13.938,-0.2783,-0.0833,-0.0722,0.299
13.938,1.063,-0.1836,0.0711,1.081
13.938,0.412,-0.1283,0.0277,0.432
13.938,0.0437,-0.0922,-0.1209,0.158
13.938,0.4316,-0.147,-0.0186,0.456
13.938,0.2772,-0.1252,0.0022,0.304
13.938,0.0416,-0.0294,0.011,0.052
13.938,0.0453,0.0471,-0.1689,0.181
13.938,0.135,0.1117,-0.1645,0.24
13.939,0.0378,0.1379,0.1291,0.193
13.939,-1.4672,0.3027,0.0759,1.5
13.939,0.0625,0.0491,-0.0492,0.094
13.939,0.8313,-0.1182,0.0763,0.843
13.939,0.5426,-0.1036,-0.1306,0.568
13.939,-0.9461,0.107,-0.1677,0.967
13.939,-0.9729,0.1883,-0.1336,1
13.939,0.1028,0.1213,0.0215,0.161
13.939,-0.911,0.2983,-0.0036,0.959
13.939,-0.2552,0.2409,-0.0174,0.351
13.94,0.3408,0.131,0.0403,0.367
13.94,-1.0257,0.2434,0.1153,1.06
13.94,-0.1445,0.0665,0.0023,0.159
13.94,0.8243,-0.1916,0.4019,0.937
13.94,-0.0015,-0.1531,0.2262,0.273
13.94,-0.154,-0.1911,0.0272,0.247
13.94,-0.0587,-0.2935,0.1966,0.358
13.94,-1.3324,-0.2452,0.1388,1.362
13.941,0.8573,-0.5268,-0.0814,1.01
13.941,1.9116,-0.7387,0.0981,2.052
13.941,-2.5979,-0.1546,-0.0561,2.603
13.941,0.7298,-0.3862,-0.1796,0.845
13.941,1.0566,-0.5433,0.1478,1.197
13.941,1.2557,-0.6022,-0.1372,1.399
13.941,0.7095,-0.3265,-0.537,0.948
13.941,-0.423,0.0349,-0.4329,0.606
13.941,-0.3463,0.3122,-0.4275,0.633
13.942,0.7019,0.3957,-0.3152,0.865
13.942,0.3964,0.5268,-0.3582,0.75
13.942,0.3964,0.5263,-0.3601,0.751
13.942,0.3954,0.5258,-0.362,0.751
13.942,0.3941,0.5254,-0.3641,0.751
13.942,0.392,0.525,-0.3664,0.751
13.942,0.3892,0.5247,-0.3693,0.75
13.942,0.3854,0.5244,-0.3727,0.75
13.942,0.3812,0.5241,-0.3765,0.75
13.942,0.3768,0.5239,-0.3805,0.749
13.943,0.3726,0.5237,-0.3843,0.749
13.943,0.3687,0.5234,-0.3874,0.748
13.943,0.3653,0.5231,-0.3898,0.748
13.943,0.3618,0.5227,-0.3913,0.746
13.943,0.3557,0.5221,-0.3905,0.743
13.943,0.3473,0.5214,-0.386,0.736
13.943,0.3406,0.5206,-0.3819,0.73
13.944,0.3531,-0.118,-0.3622,0.519
13.944,0.1637,-0.0721,-0.2474,0.305
13.944,-0.0065,0,-0.1602,0.16
13.944,0.1022,-0.0594,-0.2683,0.293
13.944,0.0648,0.0987,-0.3702,0.389
13.944,0.1279,0.235,-0.4089,0.489
13.944,-0.0811,0.254,-0.3063,0.406
13.944,-0.0511,0.1439,-0.2015,0.253
13.944,-0.0385,0.1893,-0.1543,0.247
13.945,-0.1297,0.2228,0.0384,0.261
13.945,0.1027,0.3495,0.0731,0.372
13.945,0.2193,0.2753,0.3013,0.463
13.945,0.4025,0.0889,-0.0368,0.414
13.945,0.5358,0.082,-0.0689,0.546
13.945,0.5846,-0.0468,0.0581,0.589
13.945,0.4938,-0.1348,0.1676,0.539
13.945,0.299,-0.2275,0.1694,0.412
13.945,0.1052,-0.3464,0.1376,0.387
13.945,-0.1168,-0.47,0.0752,0.49
13.946,-0.4102,-0.6627,0.0301,0.78
13.946,-0.604,-0.848,0.0071,1.041
13.946,-0.8135,-0.8539,-0.0796,1.182
13.946,-0.8884,-0.8765,-0.1206,1.254
13.946,-1.0129,-0.7746,-0.1087,1.28
13.946,-0.8932,-0.8234,0.2454,1.239
13.946,-0.5409,-0.6189,-0.1884,0.843
13.95,-0.9163,-0.6751,0.3442,1.189
13.955,-1.2055,-0.6165,0.2176,1.371
13.959,1.0202,-0.9859,-0.1018,1.422
13.974,1.4108,-1.0562,-0.3969,1.806
13.974,1.3164,-0.8182,-0.4225,1.606
13.975,-1.6447,-0.3558,0.3564,1.72
13.979,-0.3077,-0.3432,0.4376,0.636
13.984,-0.1762,0.0039,0.3245,0.369
13.989,-0.8036,0.2788,0.4782,0.976
13.993,0.8061,-0.025,0.6547,1.039
13.998,0.4358,0.3574,0.5081,0.759
14.004,1.8706,0.5841,-0.1531,1.966
14.008,-0.2466,1.3722,-0.0217,1.394
14.012,-0.5497,1.6122,0.5786,1.799
14.017,2.6814,1.2926,-0.4508,3.011
14.023,0.5298,1.375,-0.2782,1.5
14.028,-0.1173,1.4358,-0.2523,1.462
14.031,0.4491,1.0687,-0.3373,1.207
14.037,0.3532,0.831,-0.4808,1.023
14.041,0.1903,0.8157,-0.7105,1.098
14.046,0.3402,0.8243,-0.8167,1.209
14.051,0.4201,0.8018,-0.7721,1.19
14.056,0.2438,0.6409,-0.5469,0.877
14.061,-0.0499,0.4564,-0.2637,0.529
14.065,-0.236,0.3032,-0.0272,0.385
14.07,-0.2978,0.1623,0.156,0.373
14.075,-0.2686,0.0932,0.368,0.465
14.08,-0.2199,0.0265,0.5231,0.568
14.085,-0.2565,-0.0115,0.5569,0.613
14.09,-0.2494,-0.1142,0.515,0.584
14.095,-0.3276,-0.2048,0.4068,0.561
14.1,0.4412,-0.3312,0.1699,0.577
14.106,-0.1833,-0.2998,0.1004,0.365
14.11,-0.1254,-0.4859,-0.017,0.502
14.117,-0.1152,-0.5785,-0.063,0.593
14.121,-0.4732,-0.4249,-0.0396,0.637
14.125,-0.2371,-0.2427,-0.1352,0.365
14.129,-0.5502,-0.13,-0.2301,0.61
14.134,0.3497,-0.3257,-0.4344,0.646
14.139,0.0413,-0.3085,-0.5306,0.615
14.144,-1.0437,-0.1408,-0.4402,1.141
14.149,-0.6538,-0.1668,-0.3353,0.753
14.154,-0.406,-0.1784,-0.1966,0.485
14.158,-0.2929,-0.0849,-0.0719,0.313
14.164,-0.171,-0.0894,-0.0165,0.194
14.169,-0.1169,-0.1895,0.0458,0.227
14.174,-0.2259,-0.4089,0.1744,0.499
14.179,-0.3281,-0.6184,0.2523,0.744
14.183,-0.3516,-0.6866,0.3394,0.843
14.189,-0.3154,-0.6423,0.3524,0.798
14.193,-0.1862,-0.5408,0.3298,0.66
14.198,-0.0664,-0.3558,0.2717,0.453
14.202,0.0299,-0.1951,0.1593,0.254
14.208,0.2393,-0.0227,-0.0313,0.242
14.215,0.3825,0.1805,-0.1829,0.461
14.217,0.7941,0.35,-0.4536,0.979
14.224,0.7378,0.4379,-0.6312,1.065
14.229,0.771,0.4277,-0.7591,1.163
14.234,0.5989,0.31,-0.7179,0.985
14.238,0.3631,0.1137,-0.4973,0.626
14.244,0.2889,-0.0057,-0.362,0.463
14.246,0.1922,-0.1129,-0.3763,0.437
14.251,0.1762,-0.2103,-0.5476,0.613
14.256,0.206,-0.2525,-0.7739,0.84
14.261,0.2248,-0.2777,-0.8762,0.946
14.265,0.1254,-0.2167,-0.4893,0.55
14.27,0.1314,0.0952,0.3815,0.415
14.275,0.2075,0.5141,1.5995,1.693
14.281,0.7034,0.8199,2.7506,2.955
14.285,1.5312,0.7925,2.6886,3.194
14.29,1.3941,0.5594,1.5228,2.139
14.295,0.8459,0.3984,0.2811,0.976
14.299,0.5213,0.4768,-0.4261,0.825
14.305,0.4036,0.5197,-0.5972,0.889
14.31,0.0415,0.4766,-0.4803,0.678
14.314,-0.3521,0.35,-0.2898,0.575
14.32,-0.4788,0.183,-0.2521,0.571
14.323,-0.53,0.1525,-0.3547,0.656
14.329,-0.4916,0.2176,-0.435,0.692
14.333,-0.4185,0.2635,-0.4193,0.648
14.339,-0.2957,0.3095,-0.2724,0.507
14.343,-0.2164,0.3507,-0.1424,0.436
14.349,-0.1857,0.3344,0.0187,0.383
14.352,-0.1846,0.1964,0.1509,0.309
14.358,-0.2588,-0.0512,0.3332,0.425
14.362,-0.4128,-0.3009,0.5627,0.76
14.367,-0.6146,-0.3232,0.847,1.095
14.372,-0.6652,-0.3049,0.6296,0.965
14.377,-0.71,-0.2843,0.2793,0.814
14.382,-0.6797,-0.295,0.0879,0.746
14.386,-0.6762,-0.2772,0.1486,0.746
14.391,-0.9435,-0.1665,0.2221,0.983
14.397,-0.9184,-0.2662,0.0667,0.959
14.401,-0.8121,-0.3157,-0.0073,0.871
14.407,-0.5866,-0.3483,0.0403,0.683
14.412,-0.39,-0.3378,0.0661,0.52
14.417,-0.2485,-0.4134,0.0247,0.483
14.421,-0.1591,-0.4818,0.0571,0.511
14.426,-0.1385,-0.6409,0.135,0.669
14.431,-0.0217,-0.58,0.1603,0.602
14.436,0.0119,-0.5503,0.2097,0.589
14.439,-0.0327,-0.6115,0.2715,0.67
14.445,-0.0672,-0.7326,0.2407,0.774
14.45,-0.1585,-0.7508,0.2559,0.809
14.456,-0.2351,-0.5085,0.8229,0.995
14.46,-0.0151,-0.5149,0.3484,0.622
14.465,-0.0699,-0.4831,0.0699,0.493
14.469,-0.1863,-0.2626,0.1701,0.364
14.475,-0.1351,0.0221,0.1014,0.17
14.479,-0.0387,0.151,0.0739,0.173
14.484,0.0118,0.1937,0.0033,0.194
14.489,-0.036,0.2341,0.016,0.237
14.493,0.033,0.2506,0.0476,0.257
14.499,0.1018,0.1619,0.0528,0.198
14.503,0.0797,0.0973,0.0958,0.158
14.508,0.0268,0.1068,0.1287,0.169
14.514,0.051,0.1786,0.0915,0.207
14.518,0.0494,0.1738,0.0156,0.181
14.522,0.0408,0.1833,-0.0557,0.196
14.53,0.03,0.2407,-0.089,0.258
14.533,0.0002,0.3195,-0.1272,0.344
14.54,-0.0724,0.3026,-0.1152,0.332
14.541,-0.0781,0.2188,-0.1556,0.28
14.548,-0.0146,0.0419,-0.1959,0.201
14.554,0.0389,-0.0726,-0.1858,0.203
14.557,0.166,0.009,-0.2187,0.275
14.564,0.2686,0.0739,-0.2039,0.345
14.568,0.3539,0.1482,-0.1438,0.41
14.573,0.3359,0.1628,-0.0862,0.383
14.576,0.3148,0.0245,-0.0958,0.33
14.583,0.348,0.0513,-0.1364,0.377
14.586,0.3065,0.0589,-0.1293,0.338
14.589,0.286,0.0451,-0.12,0.313
14.594,0.1817,-0.002,-0.1204,0.218
14.599,0.1064,0.0608,-0.0612,0.137
14.604,0.0625,0.255,-0.0332,0.265
14.61,0.0356,0.3533,-0.0934,0.367
14.615,0.049,0.3941,-0.1604,0.428
14.619,-0.0097,0.387,-0.1147,0.404
14.624,-0.0522,0.2581,-0.0498,0.268
14.628,-0.1572,0.1175,0.0176,0.197
14.633,-0.2392,-0.0444,0.0608,0.251
14.639,-0.1877,-0.0722,0.1398,0.245
14.643,-0.2132,-0.0976,0.1614,0.285
14.649,-0.248,-0.1063,0.1998,0.336
14.652,-0.836,-0.2942,-0.1607,0.901
14.657,0.1992,0.0554,0.5311,0.57
14.662,0.3157,-0.3198,0.9073,1.012
14.667,-0.4098,-0.059,0.314,0.52
14.672,-0.3066,-0.3625,0.1526,0.499
14.678,-0.2388,-0.2592,-0.2885,0.455
14.683,-0.0673,0.3963,-0.2547,0.476
14.688,-0.0523,0.8217,-0.2214,0.853
14.691,-0.1786,0.8043,-0.2785,0.87
14.696,-0.0011,0.7152,-0.2075,0.745
14.702,-0.4523,0.5447,-0.2687,0.757
14.707,-0.3255,0.2285,-0.2547,0.472
14.71,-0.1752,-0.3405,-0.1808,0.424
14.715,0.0935,-1.0093,0.1887,1.031
14.72,-0.5658,-0.6353,0.2342,0.882
14.725,-0.7459,-0.2403,0.0953,0.789
14.73,-0.5632,-0.2304,0.019,0.609
14.736,0.3827,-0.6509,0.2754,0.804
14.742,-0.3224,-0.9635,0.1425,1.026
14.747,-0.5882,-0.5254,0.244,0.826
14.752,-3.1429,-1.756,-0.9308,3.719
14.756,-0.4026,0.9179,1.9223,2.168
14.761,-1.0186,-0.5269,-0.0559,1.148
14.765,-1.0686,-0.7944,0.0224,1.332
14.769,-3.3819,-6.4337,2.1977,7.593
14.774,-1.9308,1.458,1.1824,2.693
14.779,0.3378,3.5467,-0.1584,3.566
14.784,1.8716,5.3504,-0.1738,5.671
14.789,1.3555,4.477,-2.2095,5.173
14.794,2.3503,0.2182,-2.1834,3.215
14.798,1.8763,-2.4526,-1.6983,3.524
14.804,1.0765,-1.9718,-0.837,2.397
14.808,1.2731,-0.7931,-0.378,1.547
14.813,1.8844,-0.0935,-0.1859,1.896
14.818,2.035,0.0602,-0.1615,2.042
14.823,1.7656,-0.6564,-0.078,1.885
14.828,0.826,-1.3461,0.3032,1.608
14.832,-0.1776,-1.1388,0.5577,1.28
14.837,-0.4811,-0.5113,0.4387,0.828
14.842,-0.4946,-0.1594,0.1124,0.532
14.847,-0.5603,-0.0472,-0.1217,0.575
14.852,-0.8309,0.0266,-0.1322,0.842
14.857,-0.9837,0.0763,0.0679,0.989
14.861,-0.7373,0.0806,-0.0982,0.748
14.866,-0.6781,0.41,-0.1478,0.806
14.871,-0.677,0.6913,-0.0139,0.968
14.876,-0.7693,0.8696,0.2055,1.179
14.881,-0.5222,0.4741,0.0444,0.707
14.886,-0.6051,0.3182,0.0841,0.689
14.89,-0.5778,0.4563,-0.034,0.737
14.895,-0.4741,0.2692,-0.0656,0.549
14.9,-0.5258,0.1755,0.1014,0.564
14.905,-0.5344,0.3712,0.1845,0.676
14.91,-0.4144,0.373,0.1912,0.589
14.915,-0.4551,0.2576,0.2869,0.596
14.919,-0.3883,0.1137,0.2275,0.464
14.925,-0.1331,-0.1734,0.0322,0.221
14.932,-0.1844,-0.2809,-0.0552,0.341
14.936,-0.3794,-0.178,0.1302,0.439
14.94,-0.2972,0.3096,0.0552,0.433
14.945,-0.0796,0.9924,-0.1503,1.007
14.95,0.2321,1.0338,-0.4808,1.164
14.953,0.4351,0.5661,-0.7144,1.01
14.958,0.5159,-0.0802,-0.6493,0.833
14.963,0.5993,-0.6037,-0.5116,0.993
14.968,0.6906,-1.0045,-0.2707,1.249
14.973,0.7213,-1.2255,0.0976,1.425
14.978,0.7015,-1.2241,0.3502,1.454
14.985,0.6651,-1.1417,0.3981,1.38
14.99,0.5664,-1.0311,0.3356,1.223
14.995,0.3832,-0.8038,0.1823,0.909
14.997,-0.2198,-0.5126,0.2129,0.597
15.003,-1.1199,-0.5134,0.5251,1.339
15.009,-1.5732,-0.5787,0.3756,1.718
15.012,-1.4352,-0.4001,0.0196,1.49
15.017,-1.0882,-0.1617,-0.2402,1.126
15.022,-0.8827,0.0861,-0.3499,0.953
15.027,-0.7294,0.5801,-0.4532,1.036
15.031,-0.4917,1.0067,-0.4379,1.203
15.036,-0.1429,1.2107,-0.4307,1.293
15.041,0.2414,1.283,-0.4864,1.393
15.046,0.521,1.212,-0.4806,1.404
15.052,0.5105,1.0717,-0.3612,1.241
15.057,0.3796,0.9698,-0.1644,1.054
15.062,0.1928,0.5957,0.0027,0.626
15.066,0.1171,0.2961,0.0183,0.319
15.07,0.0733,0.0829,-0.0811,0.137
15.075,0.0826,0.0277,0.0034,0.087
15.08,0.1066,0.0156,0.0806,0.135
15.086,0.0113,-0.0849,0.0214,0.088
15.091,-0.0479,-0.5725,-0.0335,0.575
15.095,-0.049,-0.4069,0.386,0.563
15.1,0.1844,0.3511,0.0258,0.397
15.104,0.8992,-0.3281,-0.536,1.097
15.108,0.3729,-0.8727,-0.2646,0.985
15.115,0.0795,-0.2577,-0.3875,0.472
15.12,0.1377,-0.3508,-0.3432,0.51
15.125,0.0007,-0.525,-0.1517,0.546
15.128,-0.0435,-0.9761,0.0069,0.977
15.133,-0.3266,-0.3036,-0.1469,0.469
15.137,-0.1494,-0.1194,-0.441,0.481
15.142,-0.2777,0.2148,-0.5393,0.643
15.147,-0.222,-0.006,-0.4465,0.499
15.152,-0.451,0.2179,-0.3197,0.594
15.157,-0.2891,0.2983,-0.4204,0.591
15.162,0.2103,0.4313,-0.7136,0.86
15.167,0.5606,0.8871,-0.3274,1.099
15.171,0.7934,0.0639,0.0519,0.798
15.176,0.4292,0.0494,0.0337,0.433
15.181,0.2925,0.5154,-0.061,0.596
15.189,0.2575,0.3451,0.0619,0.435
15.194,0.2796,0.1153,0.0649,0.309
15.197,0.0007,0.0436,0.1702,0.176
15.2,-0.1062,0.0796,0.0072,0.133
15.207,0.0059,-0.1042,-0.1491,0.182
15.212,0.39,-0.4023,-0.4062,0.692
15.215,0.1788,-0.2627,-0.1906,0.371
15.22,-0.0509,-0.3193,0.0149,0.324
15.225,-0.223,-0.3328,0.046,0.403
15.229,-0.3087,-0.4467,0.0917,0.551
15.235,-0.5326,-0.6656,0.2214,0.881
15.242,-0.7079,-0.6287,0.3753,1.018
15.244,-0.4788,-0.8212,0.0252,0.951
15.248,-0.5364,-0.8439,-0.011,1
15.255,-0.613,-0.8738,0.0728,1.07
15.26,-0.7371,-0.789,0.1308,1.088
15.266,-0.8423,-0.6184,0.304,1.088
15.271,-0.9909,-0.4503,0.4608,1.182
15.275,-0.6928,-0.0722,0.1854,0.721
15.278,-0.6563,0.2481,0.1215,0.712
15.283,-0.5053,0.4126,-0.0375,0.653
15.288,-0.3183,0.5051,-0.2059,0.632
15.295,-0.1097,0.5522,-0.2598,0.62
15.3,0.0995,0.5084,-0.3883,0.647
15.303,0.0558,0.4838,-0.3717,0.613
15.31,0.2324,0.3279,-0.3344,0.523
15.314,0.4448,0.2272,-0.3579,0.614
15.318,1.0642,-0.1076,-0.0097,1.07
15.324,0.0812,0.3587,-0.1622,0.402
15.327,-0.122,0.3824,-0.1435,0.426
15.331,-0.0035,0.3082,-0.1685,0.351
15.337,0.0549,0.2174,-0.2102,0.307
15.342,0.9001,-0.3752,0.1214,0.983
15.346,-0.607,-0.3054,0.1286,0.692
15.351,-1.1379,-0.5822,0.1199,1.284
15.356,-1.2857,-0.3065,0.1069,1.326
15.361,-1.1434,-0.4518,0.1517,1.239
15.366,-1.7116,-0.8836,1.1212,2.229
15.37,-4.5184,-1.4869,3.9568,6.187
15.375,-4.5478,4.6422,2.9298,7.129
15.38,2.5134,4.1004,-2.2366,5.304
15.385,2.3583,4.2309,-0.6532,4.888
15.389,-1.2347,3.6271,0.5465,3.87
15.395,7.2696,-3.5006,-6.5649,10.402
15.399,-2.4962,-2.3167,-0.8735,3.516
15.404,-1.2257,-2.7996,0.433,3.087
15.409,-4.1219,0.2558,0.696,4.188
15.414,4.626,-4.9893,-4.0724,7.93
15.418,0.7451,-3.287,0.4884,3.406
15.424,1.6636,-0.7456,1.2594,2.216
15.429,3.5112,-3.786,0.8418,5.232
15.434,0.693,1.0151,1.0865,1.64
15.438,3.2566,2.2222,-1.5395,4.232
15.443,1.3236,2.1871,-0.372,2.583
15.448,1.2481,-2.5108,-0.1657,2.809
15.452,0.501,-5.5872,-0.3518,5.621
15.458,-0.4597,-4.0089,0.3666,4.052
15.462,-1.4903,-1.1585,0.5815,1.975
15.467,-1.4212,0.6848,0.0301,1.578
15.472,-2.5455,2.0171,0.3805,3.27
15.477,-2.5408,2.8148,0.3235,3.806
15.486,-1.1058,2.6531,-0.9613,3.031
15.49,-1.8323,2.6447,0.2586,3.228
15.494,-2.3371,2.1584,0.679,3.253
15.499,-1.0735,1.4314,-0.3469,1.823
15.504,-0.5628,1.1836,0.3335,1.352
15.511,-0.3983,0.8335,1.0356,1.388
15.511,-0.3714,0.699,1.4831,1.681
15.516,-0.1519,0.7701,1.5465,1.734
15.522,0.1219,0.8217,1.2681,1.516
15.526,0.2067,0.959,1.0928,1.469
15.531,0.2436,0.7304,0.5374,0.939
15.538,0.006,0.6476,0.2704,0.702
15.541,-0.4059,0.4504,0.2586,0.659
15.548,-0.6105,0.2489,-0.4031,0.773
15.553,-0.5893,0.3635,-0.8563,1.101
15.555,-0.3284,0.5044,-0.737,0.952
15.564,0.0004,0.4373,-0.4536,0.63
15.566,0.2423,0.191,-0.2966,0.428
15.571,0.164,0.0261,-0.258,0.307
15.576,0.1578,-0.2103,-0.4309,0.505
15.582,0.2428,-0.2841,-0.4356,0.574
15.586,0.3401,-0.4295,-0.2771,0.614
15.591,0.431,-0.5127,-0.4576,0.811
15.596,0.3769,-0.5265,-0.3295,0.727
15.601,0.3599,-0.4567,-0.111,0.592
15.607,0.227,-0.3942,-0.1532,0.48
15.612,0.2863,-0.2864,-0.2979,0.503
15.617,0.3081,-0.573,-0.5167,0.831
15.619,0.35,-0.5559,-0.3364,0.738
15.628,0.2757,-0.5077,-0.1466,0.596
15.629,0.0612,-0.2684,-0.4801,0.553
15.634,0.0572,0.1545,0.1506,0.223
15.637,0.6104,-0.1067,-0.3396,0.707
15.642,0.1839,0.1055,-0.2813,0.352
15.648,0.1524,0.6425,-0.4594,0.804
15.653,0.3757,1.2074,-0.3525,1.313
15.657,0.3681,0.8492,-0.5752,1.09
15.662,0.3031,-0.3641,-0.4772,0.672
15.67,-0.338,-1.0909,-1.2991,1.73
15.672,-4.2967,-0.6434,1.8838,4.735
15.685,-4.9004,-0.677,5.4577,7.366
15.688,-0.0205,1.0024,0.1905,1.021
15.69,0.5612,-0.7769,-0.2798,0.998
15.692,3.5209,0.581,-4.2892,5.58
15.699,4.0709,-0.6322,-5.5674,6.926
15.702,1.9061,-2.1014,-3.0271,4.149
15.708,-3.0784,-1.0081,-0.0487,3.24
15.713,-4.741,-1.5501,1.1612,5.121
15.717,-2.277,0.3514,2.2422,3.215
15.72,-0.5777,-0.2281,1.1837,1.337
15.727,4.2791,1.6873,-1.0406,4.716
15.731,6.0063,1.5608,-3.1042,6.939
15.738,4.7091,-0.2698,-2.5139,5.345
15.741,-0.487,-0.484,-0.5023,0.851
15.747,-4.7006,0.694,2.7094,5.47
15.751,-3.4802,1.6639,3.3619,5.117
15.754,-1.3196,-1.0595,3.2351,3.651
15.767,0.3473,-1.1821,3.7604,3.957
15.771,0.0652,-0.2583,3.0693,3.081
15.773,1.2588,-0.4045,1.3808,1.912
15.775,1.2089,1.5019,-1.5393,2.467
15.779,0.0011,-1.3404,-1.366,1.914
15.784,-0.8917,2.5294,-1.8409,3.253
15.788,-0.7311,-0.973,-2.7124,2.973
15.794,0.5057,0.2612,-1.3717,1.485
15.798,1.2828,-1.9477,-2.0201,3.085
15.804,3.3863,-0.3257,-3.1055,4.606
15.808,1.7601,0.9974,-0.8505,2.195
15.813,0.0182,1.7644,1.112,2.086
15.817,-0.69,1.0993,1.338,1.864
15.823,0.1567,-0.3914,1.1337,1.21
15.827,-0.1038,-1.0363,1.1297,1.537
15.832,-1.2356,-0.5857,1.2105,1.826
15.837,-1.7351,-0.0303,1.1774,2.097
15.841,-1.4137,0.0465,0.9684,1.714
15.849,-0.945,-0.1826,0.6598,1.167
15.851,-1.0301,-0.3662,0.3015,1.134
15.858,-1.2743,-0.4733,0.0929,1.363
15.861,-1.2743,-0.5804,0.0652,1.402
15.87,-1.1241,-0.6207,0.0524,1.285
15.871,-0.9717,-0.6275,0.0919,1.16
15.876,-0.7812,-0.5101,0.1299,0.942
15.88,-0.5096,-0.2733,0.1489,0.597
15.887,-0.1863,0.4101,0.0649,0.455
15.89,-0.1112,0.7031,0.1932,0.738
15.898,-0.0123,0.5084,0.4749,0.696
15.9,-0.1443,0.3069,0.6003,0.689
15.905,-0.2093,0.0699,0.703,0.737
15.909,-0.1242,-0.0806,0.685,0.701
15.915,0.0319,-0.0228,0.5996,0.601
15.92,0.1558,0.1784,0.4477,0.506
15.925,0.2022,0.1955,0.3024,0.413
15.929,0.2244,0.1623,0.1596,0.32
15.935,0.1774,0.0838,-0.0205,0.197
15.939,0.3077,-0.1907,-0.1947,0.411
15.945,0.0778,-0.1614,-0.3441,0.388
15.949,0.0945,-0.0341,-0.4182,0.43
15.953,0.2612,0.1216,-0.57,0.639
15.958,0.3723,0.1815,-0.6749,0.792
15.964,0.4568,0.1073,-0.721,0.86
15.968,0.4098,-0.0528,-0.7253,0.835
15.972,0.4469,-0.1052,-0.679,0.82
15.978,0.7652,0.3419,-0.9021,1.231
15.982,1.0279,0.5518,-0.3057,1.206
15.987,0.6699,0.4817,0.7478,1.113
15.992,0.3122,0.2704,-0.0222,0.414
15.999,0.2419,-0.1008,0.051,0.267
16.001,0.1051,-0.2995,0.1145,0.337
16.009,-0.3505,-1.6951,-0.0219,1.731
16.011,0.1273,-0.2497,-0.8666,0.911
16.016,0.6205,0.4604,-1.3802,1.582
16.021,1.0521,0.5794,-1.3166,1.782
16.027,0.9268,0.6625,-1.1226,1.599
16.031,0.6491,0.0452,-0.1975,0.68
16.037,0.4472,-0.2081,-0.324,0.59
16.041,0.3688,-0.7288,-0.0362,0.818
16.047,1.4658,-2.5395,4.1263,5.062
16.052,2.3903,-3.0386,3.4053,5.152
16.059,0.7239,-2.7963,3.0222,4.181
16.065,-4.6595,-3.1779,3.3867,6.579
16.066,-4.6339,-2.3469,4.4227,6.822
16.069,0.2575,4.0424,0.3109,4.063
16.075,1.6716,3.56,-1.136,4.094
16.078,1.6866,2.8149,-1.5416,3.626
16.087,0.0694,2.159,-2.3536,3.195
16.088,-0.7212,1.088,-2.1876,2.547
16.097,-1.1738,0.4271,-1.5983,2.029
16.098,-1.3198,0.0778,-0.7637,1.527
16.107,-1.0272,-0.2259,-0.169,1.065
16.109,-0.5761,-0.2426,-0.2355,0.668
16.116,-0.1931,-0.214,-0.5971,0.663
16.118,-0.1089,-0.2095,-0.5782,0.625
16.123,-0.1935,-0.1764,-0.0993,0.28
16.129,-0.4538,0.1219,0.583,0.749
16.134,-1.291,-0.5481,2.0432,2.478
16.139,-0.5243,-1.3269,1.7072,2.225
16.142,0.6245,-0.7946,0.5456,1.148
16.15,0.6137,0.8559,0.5464,1.186
16.152,0.8432,1.2112,0.8264,1.691
16.159,0.5478,1.0951,0.641,1.382
16.165,-0.0022,0.7518,-0.1304,0.763
16.166,-0.6583,0.6383,-1.1226,1.45
16.176,-0.3937,0.2073,-1.6853,1.743
16.178,0.1409,-0.6198,-1.4806,1.611
16.183,0.2418,-0.5783,-0.9588,1.145
16.188,0.0634,-0.3408,-0.3213,0.473
16.191,0.1189,-0.1873,0.0231,0.223
16.198,-0.0069,0.0376,0.13,0.136
16.201,0.0941,-0.2732,0.1409,0.321
16.21,0.188,-1.4296,0.5512,1.544
16.214,0.8245,-0.8376,0.1858,1.19
16.219,0.8192,-1.4412,0.2151,1.672
16.221,1.1972,-1.2983,0.0082,1.766
16.224,0.3161,0.3478,0.4114,0.625
16.231,0.136,0.6417,0.6596,0.93
16.236,0.1515,0.4811,0.208,0.546
16.237,-0.058,0.4402,-0.1427,0.466
16.245,-0.2396,0.3682,-0.3106,0.538
16.25,-0.3575,0.1697,-0.4514,0.6
16.255,-0.4496,0.0479,-0.5843,0.739
16.261,-0.3794,-0.1766,-0.5566,0.696
16.267,-0.3285,-0.0924,-0.4453,0.561
16.269,-0.3158,0.1851,-0.3984,0.541
