time,ax,ay,az,aT
0.003,0.0964,0.1311,-0.3886,0.421
0.003,0.0573,0.1006,-0.3995,0.416
0.003,0.0307,0.0789,-0.3799,0.389
0.003,0.036,0.0611,-0.2941,0.303
0.007,0.0703,0.0851,-0.1684,0.201
0.01,0.0737,0.1074,-0.0361,0.135
0.016,0.082,0.1156,0.0959,0.171
0.02,0.0638,0.0949,0.1727,0.207
0.025,0.0572,0.1001,0.2376,0.264
0.029,0.0668,0.0784,0.2333,0.255
0.034,0.0926,0.0656,0.2101,0.239
0.039,0.0986,0.0403,0.1394,0.175
0.044,0.128,0.0361,0.0761,0.153
0.05,0.1618,0.0556,0.0273,0.173
0.054,0.1906,0.075,0.0049,0.205
0.059,0.2194,0.0872,0.0017,0.236
0.066,0.2195,0.1135,-0.0015,0.247
0.068,0.1743,0.0893,0.0099,0.196
0.074,0.1436,0.0888,0.0213,0.17
0.079,0.1228,0.0855,0.0139,0.15
0.083,0.1308,0.0602,-0.0124,0.144
0.088,0.1461,0.0679,-0.0193,0.162
0.092,0.1758,0.0513,-0.0474,0.189
0.097,0.208,0.0345,-0.0992,0.233
0.102,0.2046,0.0127,-0.1246,0.24
0.107,0.2325,0.0007,-0.157,0.281
0.112,0.2343,-0.0112,-0.2181,0.32
0.117,0.2723,-0.0177,-0.2076,0.343
0.122,0.3198,-0.0021,-0.1807,0.367
0.126,0.3121,-0.0264,-0.1853,0.364
0.132,0.321,-0.0475,-0.1401,0.353
0.136,0.3442,-0.087,-0.0976,0.368
0.141,0.3412,-0.1235,-0.0483,0.366
0.146,0.3552,-0.1691,-0.0136,0.394
0.151,0.348,-0.2454,0.0211,0.426
0.155,0.353,-0.2759,0.0316,0.449
0.16,0.3702,-0.2749,0.0898,0.47
0.165,0.3614,-0.2546,0.1574,0.469
0.17,0.3407,-0.2151,0.2009,0.45
0.175,0.3082,-0.1806,0.2372,0.429
0.179,0.273,-0.1679,0.2735,0.421
0.185,0.2351,-0.1533,0.2477,0.374
0.19,0.178,-0.1344,0.2032,0.302
0.194,0.1256,-0.0995,0.1614,0.227
0.2,0.1069,-0.0701,0.1056,0.166
0.204,0.0814,-0.0222,0.036,0.092
0.209,0.0612,0.0082,-0.0499,0.079
0.213,-0.0016,0.0499,-0.0851,0.099
0.219,-0.0782,0.1316,-0.1344,0.204
0.223,-0.1496,0.1604,-0.1857,0.287
0.228,-0.2038,0.1819,-0.2345,0.36
0.233,-0.2216,0.2032,-0.264,0.4
0.238,-0.2487,0.2248,-0.2815,0.438
0.243,-0.2682,0.2487,-0.2464,0.441
0.252,-0.2848,0.2847,-0.178,0.44
0.252,-0.3037,0.2969,-0.0763,0.431
0.257,-0.3155,0.2707,-0.0035,0.416
0.262,-0.287,0.2227,0.0431,0.366
0.267,-0.2444,0.1839,0.0945,0.32
0.272,-0.2213,0.1374,0.1772,0.315
0.276,-0.1629,0.0519,0.2194,0.278
0.282,-0.0571,-0.0393,0.1593,0.174
0.287,0.0179,-0.0906,0.126,0.156
0.291,0.0697,-0.1114,0.1148,0.174
0.296,0.0886,-0.1301,0.0656,0.171
0.301,0.0913,-0.1394,-0.012,0.167
0.306,0.0607,-0.1123,-0.0634,0.143
0.31,0.0733,-0.0844,-0.0841,0.14
0.316,0.1025,-0.0483,-0.0455,0.122
0.32,0.1266,-0.0419,-0.0387,0.139
0.325,0.1575,-0.0225,0.0009,0.159
0.33,0.1235,-0.0186,0.0519,0.135
0.335,0.1562,-0.0449,0.0807,0.181
0.339,0.1214,-0.061,0.1164,0.179
0.344,0.1052,-0.0862,0.1468,0.2
0.352,0.0717,-0.1182,0.1365,0.194
0.355,0.0423,-0.1526,0.1929,0.25
0.359,0.0027,-0.1775,0.1823,0.254
0.364,-0.0181,-0.181,0.1454,0.233
0.369,-0.0458,-0.1678,0.1278,0.216
0.373,-0.023,-0.1378,0.1317,0.192
0.378,0.0072,-0.0838,0.1475,0.17
0.383,0.0447,-0.0629,0.1654,0.183
0.391,0.0823,-0.037,0.2048,0.224
0.393,0.0791,-0.0538,0.3108,0.325
0.399,0.0446,-0.1108,0.4092,0.426
0.403,0.0282,-0.1604,0.4857,0.512
0.407,0.0082,-0.2144,0.5785,0.617
0.413,0.0393,-0.2565,0.6542,0.704
0.419,0.0829,-0.3035,0.7225,0.788
0.422,0.1388,-0.3579,0.6138,0.724
0.427,0.211,-0.4482,-0.2661,0.562
0.432,0.1763,-0.2677,-0.5879,0.67
0.437,0.2945,-0.1558,-0.6202,0.704
0.442,0.4013,-0.175,-0.6334,0.77
0.446,0.3721,-0.2132,-0.6251,0.758
0.452,0.2234,-0.2775,-0.5476,0.653
0.456,0.1269,-0.2699,-0.4847,0.569
0.461,0.0699,-0.2714,-0.408,0.495
0.467,0.0062,-0.2241,-0.4277,0.483
0.471,-0.0929,-0.1179,-0.4794,0.502
0.476,-0.0407,-0.0286,-0.2792,0.284
0.481,-0.0773,0.0462,-0.1739,0.196
0.487,-0.1162,0.0704,-0.1441,0.198
0.49,-0.1192,0.0488,-0.0772,0.15
0.495,-0.1056,-0.0332,-0.0043,0.111
0.501,-0.1876,-0.1207,0.0127,0.223
0.506,-0.4053,-0.1474,0.2082,0.479
0.509,-0.4034,-0.2376,0.398,0.614
0.514,-0.2729,-0.356,0.611,0.758
0.522,-0.1601,-0.4482,0.7018,0.848
0.524,-0.0568,-0.4692,0.6422,0.797
0.529,0.0433,-0.4459,0.5307,0.695
0.546,0.1316,-0.45,0.3962,0.614
0.547,0.1973,-0.4338,0.2747,0.55
0.547,0.2653,-0.4216,0.1521,0.521
0.565,0.2309,-0.3873,0.1312,0.47
0.565,0.1771,-0.3165,0.0922,0.374
0.565,0.0536,-0.214,0.0494,0.226
0.565,-0.0965,-0.0917,-0.0068,0.133
0.57,-0.1088,-0.0641,-0.031,0.13
0.573,-0.0866,-0.0305,-0.0045,0.092
0.578,-0.1284,-0.0242,0.0129,0.131
0.583,-0.1458,0.0099,0.0426,0.152
0.588,-0.1459,0.0245,0.0438,0.154
0.592,-0.1573,0.0506,0.0071,0.165
0.596,-0.177,0.0502,-0.0986,0.209
0.602,-0.1546,0.0452,-0.2113,0.266
0.606,-0.0566,0.026,-0.3619,0.367
0.611,0.0388,0,-0.5313,0.533
0.616,0.0841,-0.0065,-0.5548,0.561
0.623,0.0985,-0.022,-0.4372,0.449
0.626,0.0814,-0.0444,-0.2768,0.292
0.63,0.0204,-0.0452,-0.0689,0.085
0.636,-0.0326,-0.0627,0.06,0.093
0.64,-0.116,-0.0613,0.1792,0.222
0.645,-0.2925,-0.0077,0.2959,0.416
0.654,-0.1562,0.0025,0.274,0.315
0.661,-0.0007,-0.0306,0.1663,0.169
0.662,0.1124,-0.0306,0.004,0.117
0.675,0.1336,-0.0595,-0.1746,0.228
0.675,0.1209,-0.098,-0.25,0.294
0.676,0.1095,-0.144,-0.196,0.267
0.679,0.0626,-0.1665,-0.087,0.198
0.686,-0.0039,-0.1871,0.0173,0.188
0.689,-0.1094,-0.1916,0.0953,0.24
0.694,-0.1943,-0.1801,0.1662,0.313
0.7,-0.2254,-0.1907,0.1918,0.352
0.704,-0.2026,-0.2041,0.1625,0.33
0.708,-0.1116,-0.2297,0.1117,0.279
0.713,-0.0144,-0.2457,0.0419,0.25
0.719,0.0704,-0.2591,-0.0015,0.268
0.723,0.1191,-0.2841,-0.0427,0.311
0.727,0.17,-0.2777,-0.0911,0.338
0.734,0.1684,-0.2589,-0.1062,0.327
0.738,0.124,-0.2395,-0.1644,0.316
0.742,0.0441,-0.2053,-0.2323,0.313
0.747,-0.0565,-0.1895,-0.3122,0.37
0.753,-0.1085,-0.1635,-0.3445,0.397
0.757,-0.1642,-0.1537,-0.3363,0.405
0.762,-0.2094,-0.1171,-0.2017,0.313
0.775,-0.276,-0.0756,-0.0553,0.292
0.776,-0.3312,-0.0247,0.0071,0.332
0.777,-0.3678,0.0474,0.0719,0.378
0.784,-0.3785,0.0761,0.0197,0.387
0.797,-0.3584,0.0902,-0.0969,0.382
0.798,-0.3191,0.0847,-0.2705,0.427
0.798,-0.3197,0.0767,-0.5345,0.628
0.81,-0.2951,0.0973,-0.7191,0.783
0.811,-0.2449,0.1347,-0.8461,0.891
0.814,-0.284,0.1864,-0.9488,1.008
0.827,-0.3646,0.2118,-1.0705,1.151
0.827,-0.4032,0.2135,-1.1108,1.201
0.828,-0.4499,0.2206,-1.1487,1.253
0.83,-0.5435,0.2879,-1.1127,1.271
0.838,-0.6317,0.344,-1.0412,1.265
0.84,-0.6095,0.3408,-0.9651,1.191
0.845,-0.4934,0.2234,-0.8201,0.983
0.849,-0.3148,0.0491,-0.6227,0.699
0.855,-0.2272,-0.1463,-0.3707,0.459
0.858,-0.1455,-0.3249,-0.1191,0.375
0.863,-0.0508,-0.5012,0.0892,0.512
0.868,0.1096,-0.594,0.1683,0.627
0.874,0.274,-0.6325,0.1998,0.718
0.877,0.4313,-0.6858,0.2099,0.837
0.883,0.436,-0.6537,0.2633,0.829
0.892,0.2739,-0.5224,0.3529,0.687
0.892,0.1481,-0.433,0.4404,0.635
0.897,0.0918,-0.3903,0.5521,0.682
0.902,-0.0487,-0.3318,0.5994,0.687
0.906,-0.2397,-0.2309,0.5369,0.632
0.912,-0.2876,-0.1325,0.4028,0.512
0.916,-0.2495,-0.0453,0.3067,0.398
0.921,-0.2674,0.0764,0.2485,0.373
0.926,-0.2459,0.1853,0.1276,0.333
0.931,-0.2262,0.236,0.0013,0.327
0.936,-0.1865,0.181,-0.1017,0.279
0.941,-0.0759,0.0203,-0.2076,0.222
0.946,0.1208,-0.2052,-0.4024,0.468
0.952,0.3215,-0.3807,-0.6619,0.829
0.956,0.4659,-0.504,-0.8713,1.109
0.96,0.543,-0.544,-0.9444,1.218
0.966,0.5053,-0.5133,-0.8573,1.12
0.976,0.4216,-0.4941,-0.7152,0.966
0.98,0.277,-0.4633,-0.4582,0.708
0.981,0.0777,-0.4218,-0.1458,0.453
0.987,-0.1489,-0.3659,0.1121,0.411
0.989,-0.4008,-0.2147,0.2297,0.509
0.994,-0.5043,-0.0931,0.3125,0.601
0.999,-0.8064,0.2021,0.3246,0.892
1.004,-0.5427,0.2479,0.2731,0.656
1.008,-0.4782,0.2411,0.201,0.572
1.013,-0.4481,0.1652,0.1943,0.516
1.018,-0.4907,0.033,0.126,0.508
1.023,-0.5512,-0.0045,0.0962,0.56
1.027,-0.5893,0.0243,0.0356,0.591
1.033,-0.579,0.039,0.0082,0.58
1.037,-0.5925,0.0907,0.0233,0.6
1.042,-0.6348,0.1441,0.0661,0.654
1.047,-0.876,0.3047,0.2343,0.957
1.052,-1.0658,0.4363,0.5133,1.261
1.057,-1.0976,0.474,0.7741,1.424
1.062,-1.0053,0.4724,0.9305,1.449
1.068,-0.8483,0.4767,0.8923,1.32
1.071,-0.6496,0.3742,0.7603,1.068
1.076,-0.3935,0.2151,0.6257,0.77
1.081,-0.1628,0.0567,0.5149,0.543
1.086,-0.0167,-0.0509,0.4375,0.441
1.09,0.1076,-0.1199,0.3769,0.41
1.095,0.165,-0.1121,0.3187,0.376
1.101,0.1636,-0.0564,0.2751,0.325
1.105,0.0989,0.0472,0.2699,0.291
1.11,0.0283,0.1482,0.3198,0.354
1.114,-0.0509,0.2251,0.4295,0.488
1.12,-0.1149,0.2875,0.5464,0.628
1.124,-0.1688,0.4066,0.6466,0.782
1.129,-0.2102,0.489,0.79,0.953
1.135,-0.1558,0.5297,0.9455,1.095
1.139,-0.0416,0.5262,1.1227,1.241
1.144,0.0536,0.557,1.1855,1.311
1.148,0.5105,0.5718,1.2895,1.5
1.154,0.5041,0.592,1.2004,1.43
1.159,0.3519,0.5482,0.9786,1.176
1.163,0.3846,0.4933,0.8152,1.028
1.168,0.5018,0.4156,0.6576,0.926
1.173,0.601,0.3056,0.4915,0.834
1.178,0.2977,0.3261,0.3527,0.565
1.183,1.3412,-0.1298,0.5708,1.463
1.189,0.5373,0.0211,0.309,0.62
1.192,0.4452,-0.0388,0.5426,0.703
1.197,0.4704,-0.0463,0.3582,0.593
1.202,0.432,-0.0485,0.2197,0.487
1.207,0.4373,-0.0761,0.311,0.542
1.211,0.5032,-0.1338,0.5669,0.77
1.217,0.4797,-0.1452,0.8125,0.955
1.222,0.4322,-0.1967,0.9548,1.066
1.226,0.3534,-0.3314,1.0796,1.183
1.231,0.1927,-0.3437,1.1872,1.251
1.236,0.0219,-0.339,1.2248,1.271
1.241,-0.1378,-0.2935,1.2403,1.282
1.246,-0.2772,-0.2649,1.2483,1.306
1.252,-0.3754,-0.2317,1.258,1.333
1.256,-0.4281,-0.1989,1.1884,1.279
1.26,-0.4326,-0.2,1.0969,1.196
1.265,-0.4457,-0.1563,0.9478,1.059
1.27,-0.4331,-0.1538,0.8227,0.942
1.275,-0.4489,-0.1233,0.7095,0.849
1.28,-0.4833,-0.1152,0.6205,0.795
1.285,-0.4879,-0.1727,0.5343,0.744
1.29,-0.5756,-0.8408,1.3062,1.657
1.295,-0.524,-0.7767,1.0045,1.374
1.3,-0.3307,-0.6121,0.7611,1.031
1.304,-0.156,-0.3827,0.5093,0.656
1.309,-0.0058,-0.1262,0.3376,0.36
1.315,0.0893,0.0905,0.1978,0.235
1.319,0.0581,0.2727,0.0972,0.295
1.323,-0.0033,0.4178,0.0333,0.419
1.329,-0.0778,0.5139,-0.0583,0.523
1.334,-0.2395,0.5827,-0.18,0.655
1.338,-0.4044,0.6147,-0.3033,0.796
1.343,-0.5963,0.6266,-0.392,0.95
1.347,-0.686,0.6186,-0.4774,1.04
1.353,-0.7193,0.5598,-0.5404,1.06
1.359,-0.754,0.5363,-0.6719,1.144
1.362,-0.8163,0.4667,-0.9411,1.33
1.369,-0.8142,0.4159,-1.2974,1.587
1.372,-0.7895,0.3819,-1.6165,1.839
1.377,-0.7566,0.3871,-1.8366,2.024
1.382,-0.6696,0.3793,-1.977,2.122
1.387,-0.62,0.4073,-2.0502,2.18
1.391,-0.5834,0.3975,-2.0299,2.149
1.396,-0.5786,0.3453,-1.8948,2.011
1.413,-0.5424,0.3031,-1.5853,1.703
1.413,-0.5954,0.3422,-1.0084,1.22
1.414,-0.6282,0.1844,-0.702,0.96
1.422,-0.5162,-0.2898,-0.4297,0.732
1.422,-0.2418,-0.7691,-0.1822,0.827
1.426,-0.0572,-1.1464,-0.0378,1.148
1.43,-0.0571,-1.3626,0.0683,1.365
1.44,-0.1864,-1.5999,0.0338,1.611
1.441,-0.1664,-1.9068,-0.0219,1.914
1.445,-0.1005,-2.0964,-0.1036,2.101
1.45,0.1802,-2.3382,-0.3647,2.373
1.456,0.4787,-2.3513,-0.5112,2.453
1.459,0.7153,-2.257,-0.438,2.408
1.464,1.2961,-2.975,-0.3369,3.262
1.472,1.5787,-2.7564,-0.134,3.179
1.474,1.4887,-1.7887,0.2564,2.341
1.479,1.0915,-0.9871,0.631,1.601
1.484,0.469,-0.6589,0.8011,1.138
1.488,-0.1554,-0.7422,0.8032,1.105
1.493,-0.4482,-1.1294,0.7028,1.404
1.498,-0.4107,-1.54,0.6864,1.735
1.503,-0.1777,-1.8699,0.9326,2.097
1.508,0.0643,-2.0564,1.5261,2.562
1.512,0.1695,-2.1617,2.209,3.095
1.519,0.1128,-2.1986,2.5478,3.367
1.522,-0.0378,-2.1992,2.5116,3.339
1.527,-0.0682,-2.0376,2.2497,3.036
1.534,0.0291,-1.643,1.8607,2.482
1.537,-0.0248,-1.1381,1.3478,1.764
1.541,-0.1493,-0.7193,0.6257,0.965
1.547,-0.2304,-0.4192,-0.1944,0.516
1.553,-0.224,-0.1764,-0.9134,0.957
1.556,-0.1577,0.106,-1.4265,1.439
1.561,-0.1017,0.2902,-1.7822,1.809
1.566,-0.1181,0.3886,-1.9642,2.006
1.576,-0.1988,0.4494,-2.0895,2.147
1.576,-0.308,0.4871,-2.2341,2.307
1.656,-0.3692,0.4921,-2.2706,2.353
1.657,-0.5005,0.3782,-1.9955,2.092
1.657,-0.627,0.1667,-1.3754,1.521
1.657,-0.7468,-0.2748,-0.4821,0.93
1.657,-0.7182,-0.7823,0.7388,1.294
1.657,-0.6938,-1.3737,1.9804,2.508
1.657,-0.6638,-1.8522,2.9025,3.507
1.658,-0.569,-2.0842,3.4857,4.101
1.658,-0.5695,-2.0161,3.2192,3.841
1.658,-0.7222,-2.6856,2.5286,3.759
1.658,-0.6788,-2.3904,1.8243,3.083
1.658,0.1911,-1.7219,1.9029,2.573
1.659,0.4038,-1.605,1.2275,2.061
1.659,0.3433,-1.6138,0.4363,1.707
1.659,-0.462,-0.929,-0.2485,1.067
1.659,-0.3126,-0.801,-0.1976,0.882
1.659,-0.0837,-0.8902,0.0034,0.894
1.67,-0.0303,-1.0886,-0.0567,1.091
1.67,-0.5051,-1.1902,-0.7683,1.504
1.673,-0.6575,-0.7973,-1.8796,2.145
1.678,-0.8445,-0.6593,-1.3778,1.745
1.687,-0.8334,-0.9218,-0.7662,1.46
1.687,-0.6172,-1.1112,-0.8262,1.516
1.693,-0.292,-1.0828,-1.0979,1.569
1.696,-0.0937,-0.9463,-1.2274,1.553
1.701,0.0895,-0.8522,-1.1144,1.406
1.706,0.2587,-0.7672,-1.0369,1.316
1.711,0.2869,-0.7421,-0.9419,1.233
1.716,0.3027,-0.7148,-0.7053,1.049
1.721,0.4458,-0.7034,-0.3797,0.915
1.725,0.6459,-0.7114,-0.1035,0.966
1.73,0.8305,-0.7046,0.0884,1.093
1.736,1.1831,-0.7718,0.2067,1.428
1.755,1.3052,-0.5237,0.3299,1.445
1.755,1.2342,-0.4196,0.4028,1.364
1.755,1.0836,-0.4681,0.4554,1.265
1.755,0.9255,-0.574,0.674,1.281
1.76,0.7432,-0.579,0.9558,1.342
1.767,1.2594,-0.6774,1.1025,1.806
1.77,1.6799,-0.7117,1.014,2.087
1.774,1.1958,-0.6249,0.7404,1.539
1.779,1.7612,0.5088,0.558,1.916
1.784,1.4257,0.3144,-0.0432,1.461
1.788,1.2437,0.0748,0.0927,1.249
1.793,1.3253,-0.1332,0.4098,1.394
1.798,1.4665,-0.4265,0.7609,1.706
1.803,1.3681,-0.6051,0.7632,1.679
1.808,1.4001,-0.6122,0.626,1.651
1.813,1.4093,-0.6308,0.4536,1.609
1.818,1.508,-0.774,0.3827,1.738
1.823,1.8589,-0.9028,0.332,2.093
1.827,1.7352,-1.017,0.2536,2.027
1.832,1.9562,-1.2861,0.4821,2.39
1.838,2.1875,-1.6116,0.3842,2.744
1.842,2.146,-1.7586,0.199,2.782
1.847,2.0406,-1.7246,0.1611,2.677
1.852,1.968,-1.4567,0.2106,2.458
1.858,2.0287,-1.0959,0.2902,2.324
1.861,2.2405,-0.8188,0.2927,2.403
1.866,2.647,-0.6345,0.2302,2.732
1.871,2.826,-0.3987,-0.0194,2.854
1.876,2.3005,-0.2264,-1.3424,2.673
1.88,2.468,0.0049,-0.233,2.479
1.886,2.8152,-0.0494,0.7618,2.917
1.89,2.6405,0.1342,0.6668,2.727
1.895,2.008,0.6931,0.5932,2.205
1.9,0.8067,1.1879,1.4099,2.012
1.905,0.3317,1.3643,1.963,2.413
1.909,0.4658,1.4876,2.122,2.633
1.915,0.6313,1.6754,2.2781,2.898
1.92,0.5157,1.6758,2.3601,2.94
1.924,0.3987,1.6055,2.6653,3.137
1.929,0.2322,1.5958,2.8695,3.292
1.934,0.0671,1.4152,2.9372,3.261
1.939,0.0076,1.2708,2.7413,3.022
1.944,-0.3625,0.9678,2.2649,2.49
1.949,-0.8577,0.441,1.7983,2.041
1.953,-0.7752,-0.0244,1.6718,1.843
1.959,-0.7914,-0.4482,1.3922,1.663
1.963,-1.0426,-0.8978,1.0041,1.703
1.969,-1.5181,-1.1671,0.6671,2.028
1.973,-2.1441,-1.3417,0.4682,2.572
1.978,-2.3879,-1.3711,0.7051,2.842
1.983,-2.4892,-1.334,1.0059,2.998
1.987,-2.4191,-1.28,1.3306,3.043
1.993,-2.0463,-1.1702,1.6831,2.896
1.997,-1.5113,-1.0718,1.9909,2.72
2.002,-0.8951,-0.9541,2.3273,2.67
2.007,-0.4251,-0.9059,2.5338,2.724
2.012,-0.2985,-0.9209,2.5954,2.77
2.016,-0.4297,-0.947,2.4834,2.692
2.032,-0.6718,-0.9439,2.2711,2.55
2.032,-0.7951,-1.014,1.9706,2.355
2.032,-0.7616,-1.0886,1.694,2.153
2.036,-0.1913,-1.1379,1.5345,1.92
2.041,-0.2239,-1.2636,0.9624,1.604
2.045,0.0836,-1.0539,0.6315,1.231
2.051,-0.392,-1.1583,0.5789,1.353
2.057,-0.2134,-1.4321,1.275,1.929
2.06,-0.0794,-1.2025,2.2474,2.55
2.065,-0.5006,-1.2714,2.5647,2.906
2.071,-1.0664,-1.3631,2.2522,2.84
2.075,-1.5056,-1.0396,1.8745,2.619
2.079,-1.7178,-0.5034,1.3596,2.248
2.084,-1.8941,-0.46,0.8449,2.124
2.089,-1.6421,-0.4062,0.8383,1.888
2.094,-1.5247,-0.4258,1.1096,1.933
2.099,-1.2978,-0.2418,1.0532,1.689
2.103,-0.8302,0.1405,0.9059,1.237
2.109,-0.2379,0.5088,0.8288,1.001
2.113,0.3209,0.7108,0.8862,1.181
2.119,2.3525,-0.1213,2.7386,3.612
2.123,3.0887,-0.2876,2.8372,4.204
2.128,3.5586,-0.6939,2.4699,4.387
2.133,4.0318,-1.5483,2.0249,4.77
2.138,4.1566,-2.3338,1.6327,5.039
2.153,4.0708,-2.8056,1.2332,5.095
2.153,3.7656,-2.9157,0.9012,4.847
2.153,3.5025,-2.8177,0.5643,4.53
2.159,3.0832,-2.6583,0.132,4.073
2.167,2.5055,-2.5488,-0.5079,3.61
2.167,1.949,-2.4484,-1.2512,3.37
2.177,1.5777,-2.2338,-1.8648,3.31
2.177,1.337,-1.9289,-2.2868,3.277
2.184,1.2585,-1.4609,-2.5752,3.217
2.186,1.299,-0.8121,-2.8369,3.224
2.192,1.2985,-0.2538,-2.985,3.265
2.196,1.1572,0.2231,-2.9718,3.197
2.2,0.9085,0.603,-2.8406,3.043
2.206,0.6286,0.8368,-2.6036,2.806
2.212,0.3744,0.9083,-2.3361,2.534
2.215,0.165,0.9364,-2.0276,2.24
2.22,-0.079,1.0443,-1.5897,1.904
2.236,-0.2215,1.1451,-1.0456,1.566
2.236,-0.1629,1.2285,-0.442,1.316
2.237,0.0056,1.2446,0.2374,1.267
2.24,0.1204,1.1199,0.9383,1.466
2.245,0.2021,0.9389,1.5825,1.851
2.249,0.2329,0.7006,2.014,2.145
2.254,0.2408,0.5179,2.2436,2.315
2.26,0.2784,0.3833,2.3762,2.423
2.263,0.3022,0.3878,2.4397,2.489
2.269,0.3073,0.57,2.396,2.482
2.273,0.3051,0.842,2.1552,2.334
2.278,0.1882,0.9471,1.6606,1.921
2.283,-0.0247,0.7782,0.9338,1.216
2.288,-0.1857,0.4697,0.2122,0.548
2.293,-0.2046,0.1685,-0.2852,0.389
2.298,-0.1448,-0.0491,-0.4917,0.515
2.302,-3.1921,-1.8816,12.639,13.171
2.307,-0.9702,-0.2606,2.9358,3.103
2.318,0.6373,0.2037,-3.885,3.942
2.319,0.203,-0.1648,1.5084,1.531
2.322,0.8247,-2.4915,19.9556,20.127
2.33,1.1194,-0.8892,6.9751,7.12
2.333,0.4142,-0.5396,6.0802,6.118
2.336,-0.0709,-0.5267,6.6644,6.686
2.342,-0.0208,-0.9561,8.2252,8.281
2.346,1.5032,-1.5004,8.839,9.091
2.351,2.3751,-2.0335,8.6144,9.164
2.356,2.5494,-2.4515,7.6638,8.441
2.361,2.243,-2.6405,6.1537,7.062
2.366,-0.1116,-2.2857,4.9351,5.44
2.371,0.2586,-2.1628,3.0574,3.754
2.375,0.8311,-2.1527,1.8619,2.965
2.38,1.1697,-2.2283,0.9355,2.685
2.385,1.2334,-2.3379,0.0676,2.644
2.39,1.0113,-2.3362,-1.0133,2.74
2.395,1.0529,-2.3013,-2.3327,3.442
2.401,1.3513,-2.4172,-1.4863,3.143
2.405,2.5865,-2.6171,-2.6095,4.511
2.409,3.3997,-2.8557,-3.1395,5.438
2.414,3.3414,-2.8155,-1.7856,4.72
2.418,3.116,-2.4924,-0.8595,4.082
2.426,2.6604,-2.0309,-0.2858,3.359
2.428,1.9891,-1.4713,0.3009,2.492
2.433,1.1399,-0.8602,1.158,1.839
2.438,0.1772,-0.2749,2.1183,2.143
2.443,-0.7338,0.3111,2.79,2.902
2.448,-1.4516,0.861,3.1469,3.571
2.453,-1.9514,1.3804,3.3643,4.127
2.457,-2.2009,1.7777,3.5359,4.528
2.463,-2.2972,2.0015,3.6173,4.729
2.467,-2.3275,2.0786,3.6697,4.817
2.473,-2.2395,1.9637,3.7654,4.801
2.478,-2.0505,1.6981,3.9029,4.724
2.483,-1.8307,1.4966,3.9747,4.625
2.486,-1.5527,1.1708,3.7793,4.25
2.491,-1.1416,0.7535,3.4847,3.744
2.496,-0.7539,0.2957,3.2339,3.334
2.501,0.2768,-0.3465,3.4894,3.517
2.506,1.1172,-0.677,3.7671,3.987
2.51,1.4358,-0.5961,3.3797,3.72
2.516,1.9088,-0.3283,3.344,3.864
2.52,2.3715,-0.1304,3.4666,4.202
2.525,2.7311,-0.0814,3.6163,4.532
2.53,2.9999,-0.2054,3.8101,4.854
2.535,3.0584,-0.3213,3.7161,4.824
2.539,2.9083,-0.1621,3.3121,4.411
2.544,2.5251,-0.2476,2.8456,3.812
2.549,2.167,0.1978,2.4894,3.306
2.554,1.508,0.4083,1.9069,2.465
2.559,0.7067,0.7838,1.4199,1.769
2.564,0.0114,1.0709,1.103,1.537
2.569,-0.5075,1.4661,0.9391,1.814
2.574,-0.7807,1.6742,1.1133,2.157
2.578,-0.6809,1.5513,1.7469,2.433
2.583,-0.3153,1.1437,2.6268,2.882
2.588,0.45,2.4682,2.872,3.814
2.594,1.0085,3.7124,2.449,4.56
2.598,1.0763,2.5968,2.7471,3.93
2.603,1.2317,2.8754,3.1328,4.427
2.608,1.3794,2.7041,2.9442,4.229
2.613,1.3986,2.4708,2.5079,3.788
2.617,1.4425,2.333,2.0685,3.435
2.623,1.5109,2.2837,1.4785,3.112
2.627,1.3833,2.06,0.643,2.563
2.633,0.7262,1.1045,-0.2801,1.351
2.637,0.3776,0.9515,-1.3005,1.655
2.642,0.8468,1.6338,-2.3131,2.956
2.646,1.3867,1.8804,-3.1943,3.958
2.651,1.6856,2.153,-3.5915,4.514
2.656,1.8448,2.5642,-3.2815,4.555
2.661,1.766,2.6332,-2.8777,4.282
2.666,1.2946,2.3547,-2.9749,4.009
2.671,0.9724,2.4188,-3.3149,4.217
2.676,1.1086,2.4814,-2.9975,4.046
2.68,1.2074,2.4766,-2.7099,3.865
2.685,1.1865,2.4592,-2.4524,3.67
2.69,1.1146,2.2268,-1.9494,3.162
2.695,1.0753,2.0441,-1.3196,2.66
2.699,1.1543,1.925,-0.6479,2.336
2.706,1.0833,1.9667,-0.0431,2.246
2.71,0.8035,2.2211,0.3813,2.393
2.714,0.2082,2.6717,0.4922,2.725
2.719,1.3094,2.6053,3.1827,4.316
2.724,0.3379,3.0536,2.3783,3.885
2.729,-0.5273,3.3913,1.5857,3.781
2.734,-0.6111,3.4382,2.0014,4.025
2.738,-0.9236,3.5897,1.9517,4.189
2.744,-0.7152,3.4613,2.3596,4.25
2.748,-1.5539,3.7914,1.6282,4.409
2.753,-2.5832,4.1677,0.7069,4.954
2.759,-2.3028,4.0056,0.7205,4.676
2.763,-1.5495,3.6021,0.8838,4.02
2.768,-0.9453,3.1742,0.8495,3.419
2.773,-0.8327,2.8645,0.3252,3.001
2.777,-0.9279,2.5703,-0.3914,2.761
2.783,-0.8088,2.315,-1.0213,2.656
2.787,-0.53,2.1274,-1.5575,2.689
2.792,-0.4901,1.9272,-2.0636,2.866
2.797,0.024,1.8173,-2.0565,2.745
2.802,0.6192,1.8208,-1.87,2.683
2.806,1.038,1.8624,-1.8136,2.799
2.811,1.2511,1.8861,-1.699,2.83
2.816,1.1901,1.8845,-1.4309,2.649
2.821,1.1205,1.8297,-1.0684,2.397
2.826,1.3367,1.7054,-0.4916,2.222
2.83,1.5468,1.5094,0.0338,2.161
2.836,1.841,1.3351,0.4219,2.313
2.84,2.0717,1.1982,0.7071,2.495
2.846,2.1267,1.1387,0.8963,2.573
2.85,2.0913,1.1582,1.1609,2.658
2.855,1.8841,1.3595,1.4073,2.716
2.861,1.9792,1.2227,1.9451,3.032
2.865,2.1086,1.0332,2.3894,3.35
2.869,1.6308,1.1925,2.1809,2.973
2.874,1.3139,1.3146,1.8357,2.612
2.88,0.8633,1.3738,1.5239,2.226
2.885,0.5468,1.3368,1.5561,2.123
2.89,0.081,1.2181,1.6184,2.027
2.893,-0.1051,0.9369,1.8761,2.1
2.901,-0.2223,0.614,2.2634,2.356
2.904,-0.4215,0.3858,2.694,2.754
2.908,-0.3405,0.1936,2.9543,2.98
2.913,0.1077,0.021,3.0209,3.023
2.918,0.4482,-0.1861,3.0597,3.098
2.923,0.9814,-0.5811,3.2374,3.432
2.927,1.4784,-1.0597,3.371,3.83
2.932,1.7585,-1.588,3.3968,4.142
2.937,1.6567,-1.6319,3.3929,4.113
2.943,1.9704,-1.615,3.3281,4.191
2.947,2.8536,-1.7322,3.2183,4.637
2.952,3.4983,-1.7439,3.0425,4.953
2.956,3.3942,-1.3389,2.8968,4.659
2.961,3.6087,-1.0511,2.6869,4.62
2.966,3.4946,-0.8302,2.3059,4.268
2.971,4.6202,-1.3069,1.4962,5.029
2.976,4.8824,-1.7037,0.4778,5.193
2.982,4.1291,-1.9187,-0.4621,4.576
2.985,3.0431,-1.6671,-1.4549,3.762
2.99,2.0063,-1.2264,-1.7977,2.96
2.995,2.136,-0.8731,-2.2433,3.218
3,2.321,-0.7037,-2.3088,3.349
3.005,2.2697,-0.805,-2.2279,3.281
3.01,2.0572,-1.1175,-2.1265,3.163
3.014,1.4929,-1.352,-2.0495,2.873
3.019,0.7388,-1.4349,-1.8336,2.443
3.024,0.221,-1.3335,-1.6137,2.105
3.029,-0.3067,-0.9664,-1.3654,1.701
3.035,-0.4713,-0.355,-1.0998,1.248
3.039,-0.2068,0.2624,-0.7939,0.861
3.044,0.1639,0.6648,-0.6135,0.919
3.048,0.2027,0.7741,-0.4681,0.927
3.053,0.6197,0.7063,-0.5766,1.102
3.058,1.1366,0.455,-1.0702,1.626
3.064,1.2519,0.2978,-1.77,2.188
3.068,0.825,0.3195,-1.9604,2.151
3.076,0.5926,0.0773,-2.2717,2.349
3.078,0.6629,-0.4335,-2.21,2.348
3.083,0.6756,-0.0859,-1.2545,1.427
3.087,-0.0328,0.674,-0.7145,0.983
3.093,-0.4573,0.9424,-0.3,1.09
3.097,-0.3395,1.0574,0.3142,1.154
3.102,0.0921,1.0825,1.0703,1.525
3.107,0.3773,1.2037,1.7227,2.135
3.112,0.8709,1.3501,1.9578,2.533
3.117,1.5671,1.2336,1.9759,2.807
3.122,2.0792,1.0869,1.6203,2.851
3.126,2.5041,0.8024,1.1712,2.879
3.131,2.4641,0.3916,0.8276,2.629
3.136,2.3376,-0.1389,0.8671,2.497
3.141,2.033,-0.7324,1.0185,2.389
3.145,1.6099,-1.2294,1.1911,2.35
3.151,1.3251,-1.4708,1.455,2.457
3.155,1.209,-1.6294,1.7947,2.709
3.16,1.1221,-1.7558,2.1752,3.012
3.165,0.8511,-1.9388,2.4823,3.263
3.17,0.4452,-2.1809,2.6928,3.494
3.175,0.1067,-2.3032,2.6789,3.534
3.18,-0.1366,-2.313,2.4751,3.39
3.184,-0.2111,-2.22,2.1451,3.094
3.19,-0.2105,-2.0149,1.6013,2.582
3.194,-0.1971,-1.7694,1.0649,2.075
3.199,-0.2731,-1.4141,0.4021,1.495
3.204,-0.4448,-0.9778,-0.2434,1.101
3.209,-0.5394,-0.4127,-0.7446,1.008
3.213,-0.6117,0.1758,-1.1718,1.333
3.218,-0.7573,0.7711,-1.5859,1.919
3.223,-0.8809,1.3298,-1.9591,2.526
3.228,-0.763,1.8017,-2.2775,3.003
3.233,0.0315,2.2154,-2.7653,3.543
3.238,-0.4589,2.0283,-2.9661,3.622
3.245,-1.0695,1.5373,-2.802,3.37
3.248,-1.6806,1.0823,-2.6222,3.297
3.253,-2.0529,0.6297,-2.4845,3.284
3.257,-2.1693,0.199,-2.432,3.265
3.262,-2.1609,-0.143,-2.5152,3.319
3.267,-1.9716,-0.4296,-2.694,3.366
3.271,-1.6073,-0.6368,-2.8397,3.325
3.276,-1.3783,-0.7717,-2.8383,3.248
3.281,-1.3811,-0.8366,-2.6802,3.129
3.286,-1.526,-0.7692,-2.4578,2.994
3.291,-1.6184,-0.5911,-2.1719,2.772
3.3,-1.6483,-0.2856,-1.9172,2.544
3.301,-1.7057,0.1378,-1.5932,2.338
3.306,-1.8243,0.7648,-1.2834,2.358
3.311,-1.933,1.5568,-0.9224,2.648
3.315,-2.0497,2.2982,-0.4416,3.111
3.321,-2.2851,2.8718,0.1186,3.672
3.326,-2.7309,3.0911,0.6448,4.175
3.33,-3.3475,2.9587,1.1618,4.616
3.336,-3.9643,2.5847,1.5243,4.972
3.341,-4.3826,2.1101,1.7151,5.158
3.349,-4.5853,1.6427,1.626,5.135
3.35,-4.5141,1.2181,1.251,4.84
3.354,-4.119,0.7696,0.6554,4.241
3.36,-2.9606,0.3882,-0.1173,2.988
3.364,-1.6922,0.043,-1.1741,2.06
3.37,-0.8844,-0.2873,-2.1106,2.306
3.374,-0.5959,-0.5379,-2.7182,2.834
3.378,-0.4399,-0.7184,-3.0486,3.163
3.383,-0.4506,-0.8552,-3.0337,3.184
3.388,-0.654,-1.008,-2.6961,2.952
3.393,-0.9306,-1.122,-2.1391,2.589
3.398,-1.1205,-1.1758,-1.5043,2.214
3.403,-1.2191,-1.1741,-0.9471,1.94
3.409,-1.1932,-1.0263,-0.5627,1.671
3.412,-1.1026,-0.6847,-0.4223,1.365
3.417,-1.0574,-0.2022,-0.5079,1.19
3.422,-1.1444,0.3232,-0.7234,1.392
3.427,-1.3407,0.8697,-0.9478,1.858
3.433,-1.7109,1.3201,-1.1417,2.444
3.437,-2.1839,1.574,-1.1267,2.918
3.442,-2.4753,1.5811,-0.9881,3.099
3.446,-2.5351,1.3871,-0.6749,2.967
3.451,-2.3425,1.0016,-0.2493,2.56
3.455,-2.0552,0.4585,0.2574,2.121
3.461,-1.7718,-0.1441,0.7521,1.93
3.466,-1.471,-0.7224,1.101,1.974
3.47,-1.1669,-1.2905,1.2092,2.119
3.475,-0.8568,-1.7433,1.0964,2.23
3.481,-0.5356,-2.0235,0.873,2.268
3.485,-0.2472,-2.1027,0.5964,2.2
3.49,0.1703,-2.036,0.0151,2.043
3.495,0.266,-1.7542,-0.3096,1.801
3.5,0.0041,-1.2814,-0.3478,1.328
3.505,-0.4563,-0.7421,-0.3851,0.953
3.509,-0.967,-0.1771,-0.4339,1.075
3.514,-1.6001,0.3826,-0.4464,1.705
3.519,-2.476,0.8435,-0.8818,2.76
3.524,-3.3608,1.1722,-1.5325,3.875
3.529,-4.1263,1.2495,-2.0018,4.753
3.534,-4.6145,1.1499,-2.238,5.256
3.538,-4.6541,0.8641,-2.1627,5.204
3.544,-4.1728,0.4284,-1.8301,4.577
3.548,-3.5124,-0.0038,-1.3165,3.751
3.553,-2.8419,-0.3799,-0.6996,2.951
3.558,-2.1993,-0.6449,0.0237,2.292
3.563,-1.6685,-0.8088,0.6826,1.976
3.567,-1.2776,-0.8717,1.0264,1.856
3.572,-1.0645,-0.8605,1.0177,1.706
3.576,-0.9748,-0.9164,0.9253,1.627
3.582,-0.863,-0.9868,0.6609,1.468
3.587,-0.8161,-1.0214,0.1919,1.321
3.592,-0.7522,-0.8767,-0.1101,1.16
3.596,-0.3144,-0.5933,-0.1034,0.679
3.601,0.0515,-0.2552,-0.128,0.29
3.605,0.37,-0.0201,-0.1195,0.389
3.611,0.4727,0.0953,0.0477,0.485
3.616,-0.1125,0.2007,0.4734,0.526
3.621,-0.6682,0.3054,1.0351,1.269
3.625,-0.962,0.3184,1.6455,1.933
3.63,-0.9366,0.2183,1.552,1.826
3.636,-1.3054,0.1201,0.8017,1.537
3.64,-0.9985,0.0482,-0.0394,1
3.646,-0.8746,-0.1237,-0.6,1.068
3.65,-0.9812,-0.0677,-0.9431,1.363
3.656,-0.7324,0.0059,-0.5072,0.891
3.66,-0.3728,0.1425,0.0711,0.405
3.664,0.13,0.2441,0.5108,0.581
3.669,0.2774,0.1074,0.9084,0.956
3.675,0.3009,0.1509,0.1158,0.356
3.679,-0.0282,0.1833,-0.2265,0.293
3.683,0.1747,0.1633,0.7538,0.791
3.688,1.0921,0.3864,2.3416,2.612
3.694,1.1506,0.8517,1.2956,1.931
3.699,-0.1495,0.8366,-2.4559,2.599
3.703,-0.8072,0.8531,-3.799,3.976
3.707,-0.6342,1.3879,-2.1433,2.631
3.713,-0.4091,1.9089,-0.3128,1.977
3.718,0.1343,1.9776,-0.0207,1.982
3.723,0.5034,1.4298,-1.036,1.836
3.727,0.6344,0.6109,-1.6291,1.852
3.733,1.2361,-0.1297,-1.6994,2.105
3.737,0.0901,-0.8498,-1.5129,1.738
3.743,-1.9908,-1.0048,-0.3048,2.251
3.747,-3.5287,-0.6793,0.3812,3.614
3.752,-3.689,-0.3303,0.3545,3.721
3.757,-2.7438,-0.3212,0.2876,2.777
3.762,-1.5425,-0.6562,0.2066,1.689
3.766,-0.8165,-0.8906,0.1207,1.214
3.771,-0.3627,-0.9285,0.3261,1.049
3.776,-0.2541,-1.0094,0.4657,1.14
3.781,-0.4571,-1.1617,0.4897,1.341
3.786,-0.3858,-1.192,0.5064,1.351
3.791,-0.05,-1.1889,0.3566,1.242
3.796,-0.5318,-1.248,0.5427,1.461
3.8,-0.3989,-0.8626,0.5545,1.1
3.805,0.2681,-0.4322,0.2336,0.56
3.81,0.8908,-0.1743,0.1132,0.915
3.815,1.1551,-0.1031,0.0402,1.16
3.82,0.8921,-0.1657,0.1863,0.926
3.825,0.712,-0.1947,0.2838,0.791
3.83,0.5067,-0.1949,0.2804,0.611
3.835,0.3671,-0.1377,0.3056,0.497
3.84,0.3337,-0.1213,0.2496,0.434
3.844,0.3752,-0.112,0.1936,0.437
3.849,0.5324,-0.1052,0.1713,0.569
3.854,0.5424,-0.0625,0.1824,0.576
3.858,0.8358,0.0113,0.174,0.854
3.862,0.9798,-0.0154,0.1007,0.985
3.868,0.8341,-0.0109,-0.0256,0.835
3.873,0.5419,-0.0206,0.1343,0.559
3.878,0.0792,-0.0709,0.2767,0.296
3.883,-0.299,-0.1522,0.4256,0.542
3.887,-0.4357,-0.176,0.4264,0.634
3.893,-0.5197,-0.2357,0.3324,0.66
3.897,-0.4027,-0.3337,0.3879,0.651
3.901,-0.6579,-0.0923,0.1483,0.681
3.907,-0.8582,0.1797,0.2491,0.912
3.912,-0.8704,0.2793,0.3292,0.972
3.917,-0.8068,0.3142,0.257,0.903
3.924,-0.6626,0.2963,0.1904,0.75
3.927,-0.38,0.0658,0.3084,0.494
3.931,-0.2193,-0.1048,0.2475,0.347
3.936,-0.8496,0.0523,0.2367,0.884
3.942,-0.5677,0.1686,0.4737,0.758
3.946,-0.48,0.1725,0.0694,0.515
3.95,-0.9277,0.0952,-0.1838,0.951
3.955,-1.469,0.0754,0.1031,1.475
3.96,-1.7996,-0.0662,0.5123,1.872
3.965,-1.4365,-0.2003,0.7962,1.655
3.969,-0.6918,-0.3218,0.8362,1.132
3.974,-0.1906,-0.4357,0.2005,0.516
3.98,0.0936,-0.4847,-0.4317,0.656
3.985,0.0077,-0.4835,-0.8095,0.943
3.989,-0.3749,-0.3772,-1.0274,1.157
3.994,-0.8197,-0.1183,-0.8826,1.21
3.998,-1.1268,0.1403,-0.4842,1.234
4.003,-1.2047,0.3365,-0.2662,1.279
4.008,-1.298,0.4418,-0.2027,1.386
4.014,-1.3667,0.3822,-0.1145,1.424
4.018,-1.3222,0.3323,-0.0895,1.366
4.023,-0.9732,0.3686,-0.2611,1.073
4.028,-0.5793,0.5483,-0.3946,0.89
4.032,-0.1508,0.6825,-0.3733,0.792
4.037,-0.1328,0.4175,-0.0759,0.445
4.042,-0.5693,-0.2915,0.4119,0.761
4.047,-1.2188,-1.124,0.7352,1.814
4.052,-1.7621,-1.657,0.9555,2.601
4.056,-1.8918,-1.7739,0.99,2.776
4.062,-1.6224,-1.4488,0.8722,2.344
4.066,-1.1155,-0.7563,0.685,1.512
4.071,-0.5989,-0.0265,0.4537,0.752
4.076,-0.2197,0.5494,0.1131,0.602
4.081,-0.2033,0.991,-0.2507,1.042
4.086,-0.5491,1.2529,-0.4111,1.428
4.09,-1.0171,1.2708,-0.3924,1.674
4.096,-1.2258,1.1167,-0.2288,1.674
4.101,-1.8202,0.9725,0.5953,2.148
4.105,-2.0914,0.6873,0.8754,2.369
4.11,-1.8477,0.259,0.2944,1.889
4.115,-1.5577,-0.1018,-0.0762,1.563
4.12,-1.2162,-0.4335,-0.1193,1.297
4.125,-0.8303,-0.7099,0.0151,1.093
4.129,-0.4628,-0.7971,0.2561,0.957
4.134,-0.4377,-0.6812,0.5197,0.962
4.139,-0.5919,-0.4649,0.6286,0.981
4.144,-0.7304,-0.1293,0.6182,0.966
4.149,-1.1867,0.2944,0.9214,1.531
4.154,-1.3636,0.6457,1.0628,1.846
4.158,-1.0888,0.767,0.653,1.483
4.163,-1.1966,1.0339,0.325,1.614
4.169,-1.3938,1.2837,0.5339,1.969
4.173,-0.63,1.0863,0.3373,1.3
4.178,0.1652,0.7172,0.2799,0.787
4.183,0.891,0.2316,0.3681,0.991
4.188,1.4751,-0.2842,0.4395,1.565
4.193,1.8977,-0.7035,0.5451,2.096
4.197,2.1266,-1.0098,0.6912,2.454
4.202,2.1359,-1.237,0.8111,2.598
4.207,2.184,-1.4069,0.6847,2.687
4.212,2.2573,-1.5148,0.4127,2.75
4.217,2.4804,-1.5821,0.1283,2.945
4.221,2.6867,-1.7138,-0.1362,3.19
4.226,2.529,-1.5226,-0.0457,2.952
4.231,2.6646,-1.0491,0.2055,2.871
4.236,2.8572,-0.4635,0.2439,2.905
4.241,2.8624,-0.1603,0.2671,2.879
4.246,2.6677,-0.2113,0.1322,2.679
4.251,2.4913,-0.2125,-0.2658,2.514
4.255,2.1106,-0.0562,-0.8704,2.284
4.26,1.4085,-0.0265,-1.0652,1.766
4.266,0.8502,-0.2426,-0.8553,1.23
4.27,0.2886,-0.475,-0.9598,1.109
4.275,-0.4225,-0.5803,-0.9042,1.155
4.281,0.5923,-0.272,-1.0259,1.215
4.284,0.0745,-0.5399,-0.8515,1.011
4.289,0.271,-0.5349,-0.4165,0.73
4.295,0.4783,-0.8906,-0.3667,1.075
4.299,0.1156,-1.468,0.2366,1.491
4.304,0.9748,-1.5741,0.5938,1.944
4.309,2.2114,-1.8475,-1.216,3.128
4.314,1.7464,-2.0345,-2.9296,3.971
4.318,1.354,-1.5374,-0.9462,2.257
4.324,0.9257,-0.3355,2.3818,2.577
4.329,0.1532,0.5474,3.4424,3.489
4.333,-0.4008,0.8724,2.616,2.787
4.339,-0.4899,0.9055,0.9851,1.425
4.343,-1.2946,1.0148,-0.6836,1.781
4.348,-1.6344,0.9207,-1.3559,2.315
4.353,-1.7971,0.719,-0.9832,2.171
4.357,-2.0147,0.5388,-0.2709,2.103
4.362,-2.384,0.4348,0.3496,2.448
4.367,-3.3192,0.5336,0.4903,3.397
4.372,-4.4561,0.5551,0.5783,4.528
4.377,-4.2207,0.3296,0.3506,4.248
4.382,-3.7447,0.0416,-0.3104,3.758
4.386,-3.1886,-0.201,-0.7632,3.285
4.392,-2.5919,-0.3287,-0.8859,2.759
4.397,-1.9213,-0.4326,-0.7649,2.113
4.401,-1.2389,-0.5987,-0.6061,1.504
4.405,-0.6925,-0.7839,-0.3832,1.114
4.41,-0.2694,-0.8995,-0.1657,0.954
4.415,0.0531,-0.9074,-0.0585,0.911
4.42,0.3664,-0.8173,0.0322,0.896
4.425,0.652,-0.6314,0.0946,0.913
4.43,0.939,-0.4074,0.1551,1.035
4.435,1.0558,-0.1835,0.1896,1.088
4.439,1.0887,-0.0002,0.179,1.103
4.444,0.976,0.1545,0.1829,1.005
4.449,0.7198,0.1994,0.1704,0.766
4.455,0.3463,0.2061,0.1964,0.448
4.46,-0.0829,0.1962,0.2321,0.315
4.464,-0.284,0.8365,2.3688,2.528
4.468,0.4846,0.7398,1.5538,1.788
4.473,0.6238,-0.4419,-2.5451,2.657
4.479,-0.2138,-1.0627,-2.7638,2.969
4.484,-0.4607,-1.3835,-1.0663,1.807
4.488,1.9691,-2.3157,1.9486,3.611
4.493,1.7246,-1.7411,-1.9091,3.107
4.498,-0.2389,-0.9644,-2.0595,2.287
4.503,-0.6581,-0.5837,-0.8527,1.225
4.507,1.9064,-1.0462,0.4133,2.214
4.513,2.3653,-0.8833,1.5195,2.947
4.517,2.3459,-0.6285,2.2154,3.287
4.522,1.4852,-0.339,2.4021,2.844
4.527,2.1703,0.3057,0.9092,2.373
4.532,2.7761,0.6772,0.4199,2.888
4.536,2.2164,0.9075,0.5878,2.466
4.541,1.5739,1.3197,1.6593,2.64
4.546,1.416,1.8783,3.2061,3.976
4.551,0.3803,1.8999,2.5644,3.214
4.556,-0.983,2.2403,0.2864,2.463
4.561,-2.7764,2.2225,-2.3211,4.247
4.566,-3.8122,1.9067,-2.5025,4.943
4.57,-4.3708,1.9239,-1.7336,5.08
4.575,-5.049,1.5893,-1.0901,5.404
4.58,-5.1985,0.6498,-0.8229,5.303
4.585,-4.3026,0.0383,-0.0442,4.303
4.59,-3.3565,-0.2477,1.13,3.55
4.594,-2.2242,-0.6959,1.6414,2.851
4.599,-0.854,-1.1315,1.0864,1.786
4.604,0.2643,-1.5567,0.1302,1.584
4.609,0.9004,-1.9713,-0.6766,2.27
4.614,2.1997,-2.2344,1.3161,3.401
4.619,2.9036,-1.8116,0.7213,3.498
4.624,1.0259,-0.462,-1.2671,1.695
4.628,-0.6044,-0.0099,-1.6442,1.752
4.633,-1.1845,0.4398,-0.3855,1.321
4.638,-1.6969,0.0981,0.3168,1.729
4.643,-1.6685,-0.1001,0.3418,1.706
4.648,-1.1454,-0.6231,0.4102,1.367
4.653,-0.6983,-1.1314,0.4313,1.398
4.658,-0.1759,-1.5315,0.3244,1.575
4.663,-0.3543,-2.1272,0.3021,2.178
4.668,-0.4775,-1.5727,0.2977,1.67
4.672,-0.2829,-1.0836,-0.4345,1.201
4.677,-0.2652,-0.5186,-0.2146,0.621
4.683,-0.1924,-0.0881,0.0574,0.219
4.687,-0.1053,0.2273,0.2111,0.328
4.691,0.0938,0.2484,0.3491,0.439
4.696,0.1782,0.0927,0.1447,0.248
4.701,0.0625,-0.1249,0.0573,0.151
4.706,-0.1436,-0.2825,0.0703,0.325
4.712,-0.2227,-0.3155,0.1931,0.432
4.716,-0.3189,-0.2434,0.2154,0.455
4.72,-0.4321,-0.1379,0.1228,0.47
4.728,-0.5721,0.0701,-0.039,0.578
4.73,-0.495,0.2755,0.0812,0.572
4.735,-0.45,0.3252,0.1315,0.571
4.74,-0.1188,0.308,0.1836,0.378
4.745,0.0161,0.3386,0.185,0.386
4.75,0.0843,0.2665,0.234,0.365
4.755,0.0933,0.2447,0.2064,0.333
4.76,0.2176,0.1513,0.2123,0.34
4.764,0.2422,0.0342,0.1629,0.294
4.769,0.0239,-0.0229,0.0226,0.04
4.774,-0.2099,-0.0847,-0.0123,0.227
4.78,-0.3571,-0.1464,0.0534,0.39
4.785,-0.6428,-0.1028,0.0162,0.651
4.789,-0.7732,-0.0881,0.1248,0.788
4.793,-0.7633,-0.114,0.2142,0.801
4.798,-0.4483,-0.2594,0.3129,0.605
4.804,-0.1964,-0.333,0.3253,0.505
4.809,-0.0523,-0.3946,0.1514,0.426
4.814,-0.1421,-0.4106,-0.0532,0.438
4.818,-0.2288,-0.3717,-0.1234,0.454
4.823,-3.3862,0.3149,-2.2171,4.06
4.828,-3.9193,0.5221,-0.7685,4.028
4.833,-1.7536,-0.0554,0.7467,1.907
4.837,-2.0769,0.104,0.4851,2.135
4.844,-3.8946,0.2463,-1.1257,4.061
4.847,-4.3907,0.4284,-1.2429,4.583
4.852,-0.4459,-0.3031,1.1118,1.236
4.857,-0.6208,-0.2259,0.767,1.012
4.864,0.5615,-0.483,1.2983,1.495
4.867,1.4787,-0.3835,0.5233,1.615
4.871,1.9679,-0.3748,-0.2451,2.018
4.876,1.8993,-0.349,-0.5906,2.019
4.881,1.6682,-0.3135,-0.4664,1.76
4.886,1.5726,-0.2968,-0.0314,1.601
4.891,1.3105,-0.2704,0.2595,1.363
4.896,1.0274,-0.2032,0.3681,1.11
4.9,0.701,-0.179,0.3928,0.823
4.904,0.2305,-0.1022,0.2838,0.38
4.909,0.2008,-0.0947,0.3042,0.377
4.914,0.0277,-0.0944,0.2264,0.247
4.92,-0.1668,-0.1276,0.1697,0.27
4.925,-0.223,-0.1105,0.1369,0.284
4.929,-0.1745,-0.1556,0.1062,0.257
4.933,-0.1504,-0.1959,0.068,0.256
4.938,-0.2962,-0.2051,-0.0351,0.362
4.943,-0.2771,-0.2716,0.0051,0.388
4.948,-0.495,-0.2376,-0.0145,0.549
4.953,-0.1084,-0.3471,0.3719,0.52
4.958,-0.1263,-0.3346,0.3631,0.51
4.963,-0.2421,-0.279,0.1629,0.404
4.968,-0.2597,-0.2833,0.0302,0.385
4.973,0.1532,-0.3592,0.278,0.479
4.978,0.4683,-0.4254,0.4393,0.77
4.982,0.1149,-0.3338,0.1198,0.373
4.987,-0.1367,-0.2231,-0.1512,0.302
4.992,-0.5284,-0.1197,-0.261,0.601
4.998,-0.8216,-0.0642,-0.1601,0.84
5.002,-0.7757,-0.0495,0.1867,0.799
5.008,-0.7401,0.0226,0.2529,0.782
5.012,-0.7484,0.0371,0.1944,0.774
5.016,-0.7262,0.0421,0.0309,0.728
5.022,-0.6736,0.0422,0.0042,0.675
5.027,-0.7052,-0.0318,-0.1874,0.73
5.031,-0.5936,-0.0246,-0.0918,0.601
5.036,-0.6022,0.0161,0.0275,0.603
5.041,-0.64,0.0472,0.0677,0.645
5.046,-0.4848,0.0781,0.134,0.509
5.05,-0.3973,0.0899,0.1142,0.423
5.056,-0.0638,-0.0082,0.1924,0.203
5.061,0.4895,-0.178,0.4855,0.712
5.067,0.594,-0.2518,0.305,0.714
5.071,0.3916,-0.2657,-0.0136,0.473
5.077,0.2266,-0.2675,-0.1184,0.37
5.079,-0.0329,-0.2168,-0.1343,0.257
5.084,-0.4064,-0.1063,-0.1285,0.439
5.089,-0.7749,0.0255,-0.1347,0.787
5.094,-0.6874,-0.0413,0.1699,0.709
5.098,-0.6893,-0.0698,0.1295,0.705
5.106,-0.472,-0.2011,0.1342,0.53
5.11,-0.0759,-0.3465,0.2511,0.435
5.114,0.2198,-0.4559,0.32,0.599
5.119,-0.067,-0.3834,-0.0487,0.392
5.124,-0.3887,-0.2704,-0.3207,0.572
5.128,-0.5473,-0.2029,-0.2474,0.634
5.134,-0.7038,-0.1404,-0.1121,0.726
5.14,-0.7629,-0.0565,-0.0156,0.765
5.144,-0.7749,0.0464,0.016,0.776
5.149,-0.6779,0.0727,0.0237,0.682
5.155,-0.6701,0.0988,-0.0835,0.682
5.16,-0.7419,0.0962,-0.1928,0.773
5.165,-0.6731,0.0553,-0.0725,0.679
5.171,-0.4211,-0.0597,0.2221,0.48
5.174,-0.2915,-0.0837,0.363,0.473
5.183,-0.5015,-0.0217,0.119,0.516
5.185,-0.6205,-0.0195,-0.2605,0.673
5.189,-0.5485,-0.0413,-0.0725,0.555
5.194,-0.3265,-0.0846,0.1102,0.355
5.198,-0.1934,-0.0132,0.1107,0.223
5.204,0.1189,-0.0206,-0.1516,0.194
5.206,0.2784,-0.1021,-0.2298,0.375
5.211,0.1829,-0.1763,-0.112,0.278
5.216,0.1096,-0.1618,0.0581,0.204
5.219,0.1445,-0.1832,0.2325,0.329
5.225,0.1319,-0.1806,0.361,0.425
5.23,0.1772,-0.2305,0.3196,0.432
5.235,0.156,-0.2636,0.1038,0.323
5.24,0.1164,-0.2345,-0.0899,0.277
5.246,-0.0133,-0.1553,-0.0537,0.165
5.251,-0.1067,-0.1286,0.0923,0.191
5.255,0.1204,-0.1641,0.3575,0.411
5.259,-0.2573,-0.0777,0.0604,0.275
5.267,-1.12,0.0708,-0.7669,1.359
5.27,-0.9287,-0.0893,-0.534,1.075
5.275,-0.6813,-0.1777,0.0164,0.704
12.066,-0.6814,-0.1774,0.0153,0.704
12.068,-0.3787,-0.3086,0.197,0.527
12.068,-0.0596,-0.3225,0.4737,0.576
12.068,0.3079,-0.3745,0.6474,0.809
12.069,0.5783,-0.4455,0.568,0.925
12.07,0.7209,-0.4615,0.418,0.953
12.07,0.5611,-0.3912,0.0848,0.689
12.07,0.6849,-0.3497,0.149,0.783
12.071,0.458,-0.2317,0.1628,0.539
12.071,0.0838,-0.0851,0.0306,0.123
12.071,0.3151,-0.0986,0.3567,0.486
12.072,0.6812,-0.1981,0.6722,0.977
12.072,0.3478,-0.154,0.0746,0.388
12.072,0.4601,-0.2198,0.064,0.514
12.072,-0.8792,0.1206,-0.9374,1.291
12.073,-1.3509,0.0949,-0.9699,1.666
12.073,-0.7888,-0.1245,0.1792,0.818
12.073,-0.9244,-0.0879,0.4777,1.044
12.074,-1.0441,-0.1232,0.1384,1.06
12.076,-1.1217,-0.1491,-0.145,1.141
12.077,-1.1789,-0.2228,-0.258,1.227
12.077,-1.12,-0.2678,-0.0507,1.153
12.077,-1.0718,-0.2006,0.0631,1.092
12.078,-0.9479,-0.1192,0,0.955
12.078,-0.8127,-0.0594,-0.0486,0.816
12.078,-0.6564,-0.0093,-0.0421,0.658
12.079,-0.5268,-0.0023,0.017,0.527
12.079,-0.3853,-0.0025,0.0857,0.395
12.079,-0.3157,0.0045,0.078,0.325
12.08,-0.368,0.0091,-0.0419,0.371
12.08,-0.2457,-0.0533,-0.0304,0.253
12.08,-0.0132,-0.0987,0.1268,0.161
12.081,0.0904,-0.1083,0.1834,0.231
12.081,0.161,-0.1536,0.1877,0.291
12.082,0.0143,-0.0913,0.0488,0.105
12.082,-0.0867,-0.0889,0.044,0.132
12.083,-0.0897,-0.1056,0.2016,0.245
12.083,-0.0305,-0.1365,0.3014,0.332
12.083,-0.0144,-0.1436,0.2912,0.325
12.083,-0.1418,-0.1482,0.1665,0.264
12.083,-0.5731,-0.0526,-0.1849,0.604
12.084,-0.4954,-0.1244,0.0207,0.511
12.084,-0.0832,-0.2223,0.529,0.58
12.084,0.2549,-0.246,0.6733,0.761
12.084,0.1896,-0.1071,0.2661,0.344
12.085,0.1201,-0.052,-0.0254,0.133
12.085,0.1229,-0.0686,0.1492,0.205
12.085,0.1765,-0.0875,0.4114,0.456
12.085,0.1875,-0.0633,0.4628,0.503
12.085,0.3187,-0.0462,0.4902,0.586
12.086,0.2209,-0.0244,0.2594,0.342
12.086,0.1979,-0.0383,0.1461,0.249
12.086,0.0628,-0.0546,0.0663,0.106
12.086,-0.0315,-0.1043,0.1298,0.169
12.086,-0.1425,-0.1348,0.1357,0.239
12.087,-0.2847,-0.1414,0.0816,0.328
12.087,-0.2742,-0.2102,0.1302,0.369
12.087,-0.3358,-0.2311,0.1477,0.434
12.087,-0.3642,-0.2257,0.1199,0.445
12.087,-0.3882,-0.2013,0.0639,0.442
12.088,-0.4437,-0.1985,-0.0204,0.486
12.088,-0.5187,-0.1647,-0.0637,0.548
12.088,-0.6515,-0.1262,-0.2143,0.697
12.088,-0.9094,-0.0281,-0.3737,0.984
12.089,-1.8831,0.1533,-1.197,2.237
12.089,-0.3858,-0.1961,1.0164,1.105
12.089,-0.7143,-0.0766,0.221,0.752
12.09,-0.6936,-0.0602,-0.2709,0.747
12.09,-0.3288,-0.1275,0.074,0.36
12.091,-0.2249,-0.154,0.1935,0.334
12.091,-0.0682,-0.1541,0.2605,0.31
12.091,-0.1742,-0.0587,0.0648,0.195
12.091,-0.2346,-0.0183,-0.0327,0.238
12.092,-0.2137,-0.0377,0.0059,0.217
12.092,-0.2958,-0.0284,-0.0777,0.307
12.092,-0.3375,-0.0359,-0.0347,0.341
12.092,-0.2287,-0.0792,0.132,0.276
12.093,-0.0771,-0.1247,0.2266,0.27
12.093,-0.0566,-0.1081,0.1013,0.159
12.093,0.0144,-0.144,0.0572,0.156
12.093,0.1479,-0.1894,0.1875,0.305
12.093,0.2295,-0.1964,0.26,0.399
12.093,0.2208,-0.1459,0.1579,0.308
12.094,0.1433,-0.1194,0.0558,0.195
12.094,0.0567,-0.0785,-0.0582,0.113
12.094,-0.0248,-0.0783,-0.0935,0.124
12.094,0.1118,-0.164,0.1076,0.226
12.094,0.1005,-0.1755,0.1243,0.237
12.094,0.1233,-0.2347,0.1745,0.317
12.094,0.2829,-0.3249,0.3656,0.565
12.095,0.4098,-0.3264,0.3986,0.658
12.095,0.2337,-0.2849,0.1429,0.395
12.095,-0.7574,-0.0859,-0.9071,1.185
12.095,-0.3955,-0.3029,0.1728,0.527
12.095,-0.202,-0.2998,0.7249,0.81
12.095,-0.0754,-0.2704,0.6146,0.676
12.096,-0.1495,-0.1479,0.1515,0.259
12.096,-0.2882,-0.0949,-0.1383,0.333
12.096,-0.1375,-0.1448,0.1195,0.233
12.096,-0.0849,-0.1157,0.2767,0.312
12.096,-0.085,-0.0508,0.3502,0.364
12.096,-0.2284,0.0163,0.1732,0.287
12.097,-0.2573,0.0093,0.1733,0.31
12.097,-0.3846,0.0094,0.1115,0.401
12.097,-0.529,-0.0074,0.0428,0.531
12.097,-0.6047,0.0117,0.0984,0.613
12.097,-0.7289,0.0618,0.0607,0.734
12.097,-0.7701,0.0663,0.1402,0.786
12.098,-0.7858,0.0898,0.1574,0.806
12.098,-0.6732,0.044,0.2368,0.715
12.098,-0.5229,-0.0018,0.2922,0.599
12.099,-0.4017,-0.0405,0.2833,0.493
12.099,-0.2616,-0.0671,0.3128,0.413
12.099,-0.1597,-0.0747,0.3091,0.356
12.099,-0.0553,-0.0487,0.2984,0.307
12.099,0.0303,-0.0084,0.3214,0.323
12.099,0.0684,0.039,0.2705,0.282
12.099,0.0734,0.0864,0.1648,0.2
12.1,-0.1292,0.1433,-0.0982,0.216
12.1,-0.1282,0.052,0.1072,0.175
12.1,0.4062,-0.0917,0.988,1.072
12.1,-0.0035,0.0229,0.2243,0.225
12.1,-0.6492,0.1349,-0.595,0.891
12.1,-0.0683,-0.1499,0.4666,0.495
12.101,-0.0665,-0.1571,0.5395,0.566
12.101,-0.6215,0.0317,-0.3117,0.696
12.101,-0.0931,-0.1741,0.4579,0.499
12.101,-0.0381,-0.1597,0.158,0.228
12.101,0.0458,-0.1931,0.3246,0.38
12.101,0.0967,-0.212,0.3859,0.451
12.102,0.1457,-0.2071,0.3085,0.399
12.102,0.0422,-0.1901,0.1001,0.219
12.102,-0.0801,-0.1731,-0.0412,0.195
12.102,-0.0562,-0.1991,0.1305,0.245
12.102,-0.0321,-0.2251,0.23,0.323
12.102,0.2699,-0.3704,0.229,0.512
12.103,-0.1096,-0.2002,0.2065,0.308
12.103,-0.1423,-0.2141,0.2462,0.356
12.103,-0.0194,-0.3188,0.3216,0.453
12.103,-0.0205,-0.2752,0.2534,0.375
12.103,0.2877,-0.4371,0.1545,0.546
12.103,-0.2867,-0.1376,0.0604,0.324
12.103,-0.5438,-0.0034,0.3152,0.629
12.104,-0.5455,0.0278,0.2108,0.586
12.104,-0.4546,-0.0056,0.1732,0.487
12.104,-0.376,-0.0557,0.0516,0.384
12.104,-0.2348,-0.1917,0.0043,0.303
12.104,0.6138,-0.5568,0.0936,0.834
12.104,0.6744,-0.5508,-0.2213,0.898
12.105,-0.32,-0.2031,-0.058,0.383
12.105,-1.227,0.1344,0.1909,1.249
12.105,-1.5018,0.2108,0.1956,1.529
12.105,-1.4772,0.1554,0.1931,1.498
12.105,-1.2104,-0.0099,0.1666,1.222
12.105,-0.897,-0.1058,0.0875,0.907
12.106,-0.6608,-0.1849,0.0136,0.686
12.106,-0.5279,-0.1756,-0.005,0.556
12.106,-0.4502,-0.171,0.041,0.483
12.106,-0.3534,-0.133,0.1302,0.399
12.106,-0.357,-0.107,0.1572,0.404
12.106,-0.3869,-0.0834,0.1151,0.412
12.106,-0.4983,-0.079,0.0828,0.511
12.107,-0.5285,-0.089,0.115,0.548
12.107,-0.5086,-0.1037,0.1399,0.538
12.107,-0.4676,-0.0969,0.1194,0.492
12.107,-0.3476,-0.1188,0.094,0.379
12.107,-0.2493,-0.0953,0.0615,0.274
12.107,-0.194,-0.0742,0.0268,0.209
12.108,-0.4566,0.0258,-0.3064,0.55
12.108,-0.1188,-0.1396,0.2879,0.341
12.108,-0.0489,-0.1136,0.286,0.312
12.108,-0.2944,-0.0303,-0.1336,0.325
12.108,-0.4272,-0.0474,-0.1341,0.45
12.108,-1.1197,0.0739,-0.674,1.309
12.108,-0.4256,-0.2566,0.782,0.927
12.109,0.2413,-0.3762,1.1805,1.262
12.109,0.0189,-0.1754,0.0113,0.177
12.109,-0.0876,-0.0729,-0.5126,0.525
12.109,0.1033,-0.1353,-0.0543,0.179
12.109,1.0955,-0.3001,1.1144,1.591
12.109,0.6014,-0.037,-0.1124,0.613
12.11,0.5276,0.0276,-0.264,0.591
12.11,0.4334,0.0324,0.0024,0.435
12.11,0.2872,0.0039,0.2203,0.362
12.11,0.1558,0.0185,0.2155,0.267
12.11,-0.0473,0.033,0.096,0.112
12.11,-0.1591,0.0332,0.1103,0.196
12.111,-0.2185,0.0095,0.1745,0.28
12.111,-0.4361,0.055,0.2099,0.487
12.111,-0.4677,0.0479,0.2117,0.516
12.111,-0.4424,0.0073,0.0556,0.446
12.111,0.068,-0.179,0.4492,0.488
12.111,0.0451,-0.1571,0.1041,0.194
12.111,-0.0253,-0.152,-0.0968,0.182
12.112,-0.0955,-0.178,-0.0417,0.206
12.112,-0.1417,-0.1513,0.0488,0.213
12.112,-0.0744,-0.182,0.1585,0.253
12.112,2.3986,-1.1847,0.2807,2.69
12.112,1.5789,-0.7902,-0.7878,1.933
12.113,1.2215,-0.69,0.0455,1.404
12.113,0.7635,-0.5085,0.0773,0.921
12.113,-0.1055,-0.1695,0.1331,0.24
12.113,-0.7958,0.0591,0.2342,0.832
12.113,-1.0494,0.1534,0.1247,1.068
12.113,-0.7874,0.0635,0.0652,0.793
12.113,-0.6845,0.0382,0.0844,0.691
12.114,-1.0833,0.1633,0.1939,1.113
12.114,-1.4564,0.2975,0.2481,1.507
12.114,-1.945,0.436,0.3117,2.018
12.114,-1.6158,0.2944,0.1817,1.652
12.114,-1.1738,0.1075,0.1021,1.183
12.114,-0.6494,-0.0793,0.0033,0.654
12.114,-0.2522,-0.1726,-0.0977,0.321
12.115,-0.0603,-0.1654,-0.0502,0.183
12.115,0.0077,-0.096,0.1123,0.148
12.115,0.026,-0.0363,0.1341,0.141
12.115,-0.0269,0.0258,0.1634,0.168
12.115,-0.1129,0.0377,0.0806,0.144
12.115,-0.2106,0.0232,-0.0094,0.212
12.115,-0.3058,-0.027,-0.1019,0.324
12.115,-0.3414,-0.0748,-0.0751,0.357
12.116,-0.3435,-0.125,-0.0391,0.368
12.116,-0.3529,-0.1439,-0.0198,0.382
12.116,-0.3385,-0.1534,0.0066,0.372
12.116,-0.274,-0.2082,0.0617,0.35
12.116,-0.2239,-0.2367,0.1599,0.363
12.116,-0.1475,-0.2484,0.2054,0.354
12.116,-0.0663,-0.2768,0.2151,0.357
12.116,0.0294,-0.2669,0.1962,0.333
12.117,0.135,-0.226,0.1701,0.313
12.117,0.3009,-0.216,0.1677,0.407
12.117,0.6296,-0.2943,0.0485,0.697
12.117,2.8643,-0.9501,-0.0147,3.018
12.117,2.3072,-0.7133,-0.2808,2.431
12.117,1.4997,-0.3666,-0.1954,1.556
12.117,0.8042,-0.0632,0.05,0.808
12.118,0.1552,0.1753,0.245,0.339
12.118,-0.5686,0.3537,0.2315,0.709
12.118,-1.3901,0.5078,0.2196,1.496
12.118,-1.8919,0.5418,0.0469,1.969
12.118,-2.8212,0.6756,-0.1213,2.903
12.118,-2.3358,0.3595,0.0903,2.365
12.118,-1.7144,0.0723,0.0218,1.716
12.118,-1.1952,-0.1644,-0.1444,1.215
12.119,-0.691,-0.3507,-0.0953,0.781
12.119,-0.2876,-0.4005,0.0568,0.496
12.119,-0.1615,-0.3834,0.0299,0.417
12.119,-0.3388,-0.2372,-0.1517,0.441
12.119,-0.437,-0.182,0.0542,0.476
12.119,-0.3656,-0.1604,0.2599,0.476
12.119,-0.3995,-0.1006,0.009,0.412
12.119,-0.3786,-0.1054,-0.0937,0.404
12.12,-0.3411,-0.0958,-0.0791,0.363
12.12,-0.2798,-0.1125,-0.0312,0.303
12.12,-0.2378,-0.1197,-0.0265,0.268
12.12,-0.2412,-0.0958,-0.0721,0.269
12.12,-0.271,-0.1006,-0.0626,0.296
12.12,-0.2888,-0.0863,-0.0461,0.305
12.12,-0.3116,-0.0218,0.0302,0.314
12.12,-0.2915,-0.0626,0.0537,0.303
12.121,-0.2117,-0.1248,-0.0088,0.246
12.121,-0.1487,-0.1607,-0.0689,0.229
12.121,-0.1333,-0.1798,-0.0597,0.232
12.121,-0.2017,-0.1845,-0.0003,0.273
12.121,-0.2269,-0.1796,0.0112,0.29
12.121,-0.269,-0.1509,0.0061,0.308
12.121,-0.3135,-0.1365,0.0202,0.343
12.121,-0.4346,-0.1294,-0.08,0.46
12.122,-0.7232,-0.1463,-0.2111,0.767
12.122,-0.2614,-0.1918,0.456,0.56
12.122,-0.4624,-0.1226,-0.0696,0.483
12.122,-0.4218,-0.0918,-0.0593,0.436
12.122,-0.2834,-0.0706,0.0251,0.293
12.122,-0.2502,-0.0326,-0.0194,0.253
12.122,-0.1716,-0.0186,0.0748,0.188
12.122,-0.339,0.0384,-0.0674,0.348
12.123,-0.2766,0.0308,0.1134,0.3
12.123,-0.4341,0.0255,0.048,0.438
12.123,-0.405,0.0012,0.1551,0.434
12.123,-0.4787,-0.0208,0.1022,0.49
12.123,-0.1673,-0.0355,0.3266,0.369
12.123,0.0247,-0.0262,0.2307,0.234
12.123,0.0643,-0.0122,0.0039,0.066
12.123,0.09,-0.0292,-0.0696,0.117
12.124,0.2383,-0.0938,0.0983,0.274
12.124,0.1765,-0.1273,0.0126,0.218
12.124,0.1437,-0.1488,0.0202,0.208
12.124,0.1255,-0.1917,0.0515,0.235
12.124,0.239,-0.213,0.1542,0.355
12.124,0.3171,-0.2366,0.0944,0.407
12.124,0.2665,-0.1693,-0.2164,0.383
12.124,0.398,-0.1378,-0.0827,0.429
12.125,0.4892,-0.1231,-0.0498,0.507
12.125,-1.3248,0.226,-2.0173,2.424
12.125,-0.2118,-0.2952,0.3612,0.512
12.125,0.4001,-0.2707,1.1786,1.274
12.125,-0.0575,0.0142,0.4253,0.429
12.125,-0.0868,0.0405,-0.2577,0.275
12.125,0.0637,-0.0143,-0.4169,0.422
12.126,0.1499,-0.0403,-0.335,0.369
12.126,0.0308,-0.0447,-0.4613,0.464
12.126,-0.1552,-0.061,-0.3579,0.395
12.126,-0.4175,-0.1204,-0.2521,0.502
12.126,-0.5934,-0.1415,-0.2181,0.648
12.126,0.6102,-0.6043,-0.1934,0.88
12.126,-0.0316,-0.3782,-0.3573,0.521
12.126,-1.1603,-0.0428,0.3874,1.224
12.127,-1.4492,0.0959,0.5552,1.555
12.127,-1.4751,0.153,0.3257,1.518
12.127,-1.1225,0.0712,0.0722,1.127
12.127,-0.6374,-0.0656,-0.2458,0.686
12.127,-0.2698,-0.1687,-0.3721,0.49
12.127,-0.0768,-0.2142,-0.2615,0.347
12.128,0.0113,-0.2215,-0.0454,0.226
12.128,-0.0438,-0.1977,0.0418,0.207
12.128,-0.1009,-0.2002,0.0454,0.229
12.128,-0.1601,-0.1692,0.0182,0.234
12.128,-0.2167,-0.1287,0.0056,0.252
12.128,-0.2014,-0.1264,-0.0711,0.248
12.128,-0.2001,-0.1314,-0.1259,0.27
12.128,-0.2059,-0.1172,-0.0681,0.246
12.129,-0.2544,-0.1054,-0.0123,0.276
12.129,-0.377,-0.0244,0.0438,0.38
12.129,-0.4853,0.0302,0.0359,0.488
12.129,-0.5506,0.068,-0.0695,0.559
12.129,-0.5659,0.1056,-0.1459,0.594
12.129,-0.5094,0.1146,-0.1695,0.549
12.129,-0.3477,0.0686,-0.2097,0.412
12.129,-0.356,0.1277,-0.1134,0.395
12.13,-0.3717,0.2202,0.2028,0.477
12.13,-0.2586,0.2576,0.234,0.434
12.13,-0.1051,0.2974,0.2216,0.386
12.13,0.0626,0.2798,0.1515,0.324
12.13,0.1635,0.2193,0.0071,0.274
12.13,0.2432,0.1183,-0.0706,0.28
12.13,0.1581,0.0151,-0.1988,0.255
12.13,0.0038,-0.0617,-0.2149,0.224
12.131,0.0647,-0.2555,0.146,0.301
12.131,-0.0036,-0.4394,0.2644,0.513
12.131,-0.0289,-0.5227,0.2271,0.571
12.131,-0.0234,-0.3646,0.1468,0.394
12.131,-0.0926,-0.3836,0.047,0.397
12.131,-0.1098,-0.4671,-0.0027,0.48
12.131,-0.1036,-0.5027,-0.0334,0.514
12.131,-0.1,-0.4714,0.0411,0.484
12.132,-0.0583,-0.4283,0.1344,0.453
12.132,0.055,-0.3588,0.1984,0.414
12.132,0.1469,-0.3085,0.2044,0.398
12.132,0.2293,-0.2486,0.1571,0.373
12.132,0.3097,-0.1912,0.1452,0.392
12.132,0.3261,-0.1623,0.0734,0.372
12.132,0.3336,-0.1335,0.0493,0.363
12.133,0.3487,-0.1261,0.0941,0.383
12.133,0.3692,-0.1497,0.1959,0.444
12.133,0.3518,-0.0944,0.2135,0.422
12.133,0.3063,-0.0294,0.1902,0.362
12.133,0.2231,0.0211,0.0975,0.244
12.133,0.145,0.0047,0.1436,0.204
12.133,0.0337,-0.0092,0.101,0.107
12.133,-0.1348,-0.0495,0.0228,0.145
12.134,-0.1883,-0.0753,0.05,0.209
12.134,-0.3518,-0.0582,-0.0562,0.361
12.134,-0.5467,-0.0364,-0.2381,0.597
12.134,-0.4119,-0.0648,0.0966,0.428
12.134,-0.3444,-0.0717,0.1653,0.389
12.134,-0.4255,0.005,-0.0383,0.427
12.134,-0.3562,0.0194,-0.0766,0.365
12.134,-0.2607,0.0339,-0.0195,0.264
12.134,-0.1822,0.0292,0.0543,0.192
12.135,-0.1156,0.0293,0.0397,0.126
12.135,-0.0656,0.027,0.0155,0.073
12.135,0.054,-0.0063,0.1083,0.121
12.135,0.1574,-0.0706,0.2055,0.268
12.135,0.211,-0.0725,0.1877,0.292
12.135,0.2223,-0.0553,0.1126,0.255
12.135,0.1601,-0.0165,0.0736,0.177
12.135,0.0985,-0.0184,0.0375,0.107
12.136,-1.1633,0.2855,-1.5978,1.997
12.136,-1.0673,-0.023,-0.5255,1.19
12.136,-1.1617,0.0273,0.5878,1.302
12.136,-1.5996,0.0939,0.081,1.604
12.136,-1.6419,0.11,-0.1203,1.65
12.136,-1.387,0.0422,-0.0963,1.391
12.136,-0.9303,-0.028,0.2884,0.974
12.136,-0.1951,-0.165,0.7556,0.798
12.137,0.1019,-0.1082,0.3494,0.38
12.137,0.3995,-0.0992,0.0585,0.416
12.137,0.7362,-0.145,0.0525,0.752
12.137,1.091,-0.2718,0.2442,1.151
12.137,1.5219,-0.434,0.6136,1.697
12.137,1.4911,-0.402,0.3703,1.588
12.137,1.4247,-0.2982,0.1681,1.465
12.137,1.2983,-0.1967,0.0352,1.314
12.137,1.0566,-0.1166,0.0838,1.066
12.138,0.7108,0.0113,0.1413,0.725
12.138,0.4042,0.1583,0.2268,0.49
12.138,0.16,0.231,0.2519,0.377
12.138,-0.125,0.2726,0.1068,0.318
12.138,-0.2837,0.2591,0.0596,0.389
12.138,-0.3998,0.2074,0.1243,0.467
12.138,-0.5957,0.1533,0.0119,0.615
12.138,-0.4553,-0.0061,0.4012,0.607
12.139,-0.4331,-0.0912,0.2857,0.527
12.139,-0.4043,-0.2002,0.087,0.459
12.139,-0.3785,-0.2757,-0.094,0.478
12.139,-0.437,-0.3345,-0.2525,0.605
12.139,-0.5293,-0.3694,-0.219,0.682
12.139,-0.7081,-0.3614,-0.1061,0.802
12.139,-0.7648,-0.3797,-0.0811,0.858
12.139,0.3877,-0.7276,-0.0368,0.825
12.14,-0.5578,-0.2697,-0.2841,0.682
12.14,-1.3347,0.0392,0.4041,1.395
12.14,-1.5869,0.1824,0.3058,1.626
12.14,-1.5562,0.2368,0.1746,1.584
12.14,-1.2209,0.162,0.1297,1.238
12.14,-0.8198,0.0441,-0.0273,0.821
12.14,-0.5147,-0.0616,-0.1073,0.529
12.14,-0.3126,-0.1123,0.0449,0.335
12.141,-0.2683,-0.1558,0.1734,0.355
12.141,-0.2405,-0.1298,0.1106,0.295
12.141,-0.2244,-0.1015,0.0789,0.259
12.141,-0.1293,-0.0923,0.0974,0.186
12.141,-0.1513,-0.0449,-0.0466,0.165
12.141,-0.1877,-0.0095,-0.1281,0.227
12.141,0.0701,-0.0721,0.249,0.269
12.141,0.2709,-0.1153,0.4169,0.51
12.142,0.3598,-0.0963,0.2665,0.458
12.142,0.3968,-0.0533,0.0133,0.401
12.142,0.3676,-0.0198,-0.1298,0.39
12.142,0.2674,0.009,-0.0795,0.279
12.142,0.1223,0.0306,0.0639,0.141
12.142,-0.0418,0.0474,0.0279,0.069
12.142,-0.2609,0.0379,-0.0105,0.264
12.142,-0.442,0.0068,-0.0509,0.445
12.143,-0.5948,-0.0196,-0.017,0.595
12.143,-0.7604,-0.0556,-0.0138,0.763
12.143,-0.7882,-0.0893,0.1115,0.801
12.143,-0.6687,-0.1112,0.2896,0.737
12.143,-0.4855,-0.1236,0.3623,0.618
12.143,-0.2598,-0.1264,0.3109,0.424
12.143,-0.051,-0.1364,0.2146,0.259
12.143,0.1101,-0.1512,0.1091,0.217
12.143,0.1903,-0.1396,0.0205,0.237
12.144,0.1824,-0.1471,0.0182,0.235
12.144,0.1177,-0.1115,0.0233,0.164
12.144,0.0176,-0.0424,0.0573,0.073
12.144,-0.1181,0.048,0.0963,0.16
12.144,-0.201,0.1001,0.1664,0.279
12.144,-0.2578,0.1449,0.1695,0.341
12.144,-0.3219,0.1562,0.1486,0.387
12.144,-0.3743,0.1364,0.1134,0.414
12.145,-0.4249,0.1237,0.0688,0.448
12.145,-0.5023,0.0895,-0.0233,0.511
12.145,-0.5542,0.0647,-0.0721,0.563
12.145,-0.5374,-0.0151,0.0229,0.538
12.145,-0.4926,-0.102,0.0437,0.505
12.145,-0.4581,-0.1579,0.0862,0.492
12.145,-0.4288,-0.1682,0.0261,0.461
12.145,-0.426,-0.2289,-0.0335,0.485
12.145,-0.3901,-0.2679,-0.0352,0.475
12.146,-0.3116,-0.2831,0.0065,0.421
12.146,-0.2192,-0.2769,0.0365,0.355
12.146,-0.0961,-0.3016,0.0591,0.322
12.146,0.1323,-0.3192,0.1723,0.386
12.146,0.3444,-0.3198,0.225,0.521
12.146,0.4687,-0.318,0.2604,0.623
12.146,0.5389,-0.2849,0.2498,0.659
12.146,0.6437,-0.2446,0.3269,0.762
12.146,0.5822,-0.2281,0.2341,0.668
12.147,0.51,-0.2162,0.1914,0.586
12.147,0.4031,-0.1661,0.0819,0.444
12.147,0.2468,-0.0968,0.0323,0.267
12.147,0.1677,-0.0466,0.0687,0.187
12.147,0.1128,0.0083,0.1645,0.2
12.147,0.0607,0.0655,0.2959,0.309
12.147,0.023,0.1203,0.336,0.358
12.147,0.0116,0.1249,0.335,0.358
12.148,0.0241,0.108,0.3215,0.34
12.148,0.0222,0.072,0.2742,0.284
12.148,0.0226,0.0457,0.1551,0.163
12.148,0.059,0.0074,0.0888,0.107
12.148,0.0931,-0.0285,0.0679,0.119
12.148,0.0605,-0.057,0.0445,0.094
12.148,-0.0316,-0.0688,0.0425,0.087
12.148,-0.102,-0.0471,-0.0052,0.112
12.148,-0.1531,-0.023,-0.0674,0.169
12.149,-0.1563,-0.03,-0.0293,0.162
12.149,-0.1571,-0.0705,0.0183,0.173
12.149,-0.1435,-0.0917,0.0373,0.174
12.149,-0.132,-0.113,0.0372,0.178
12.149,-0.1323,-0.1317,0.0443,0.192
12.149,-0.1588,-0.1649,0.0108,0.229
12.149,-0.2307,-0.1836,-0.0033,0.295
12.149,-0.2931,-0.1951,-0.0005,0.352
12.149,-0.3152,-0.1805,-0.0404,0.365
12.15,-0.3591,-0.173,-0.0993,0.411
12.15,-0.3555,-0.1537,-0.1436,0.413
12.15,-0.3402,-0.1607,-0.1303,0.398
12.15,-0.3348,-0.1342,-0.0857,0.371
12.15,-0.2914,-0.127,-0.0529,0.322
12.15,-0.2553,-0.0863,-0.0224,0.27
12.15,-0.2624,-0.0648,-0.0088,0.27
12.15,-0.315,-0.0338,-0.048,0.32
12.151,-0.3485,0.0068,-0.0705,0.356
12.151,-0.3581,0.0329,-0.0691,0.366
12.151,-0.3316,0.071,-0.039,0.341
12.151,-0.2453,0.0661,-0.0088,0.254
12.151,-0.1659,0.0803,0.0431,0.189
12.151,-0.0385,0.0992,0.1141,0.156
12.151,0.0438,0.0656,0.1806,0.197
12.152,0.1121,0.0656,0.1754,0.218
12.152,0.1685,0.1492,0.2677,0.35
12.152,0.12,0.0727,0.2854,0.318
12.152,-0.0265,-0.0229,0.0306,0.047
12.152,-0.0629,-0.0228,-0.0756,0.101
12.152,-0.0634,-0.0131,-0.0811,0.104
12.152,-0.0425,-0.0393,-0.0578,0.082
12.153,-0.0574,-0.1013,-0.0129,0.117
12.153,-0.0509,-0.1417,0.032,0.154
12.153,-0.0538,-0.1725,0.0721,0.195
12.153,-0.0658,-0.1876,0.0186,0.2
12.153,-0.0917,-0.1954,0.0272,0.218
12.153,-0.1363,-0.1533,0.0188,0.206
12.153,-0.216,-0.1923,0.0534,0.294
12.153,-0.2217,-0.2403,-0.0096,0.327
12.153,-0.2012,-0.2525,-0.0341,0.325
12.154,-0.1572,-0.2099,0.0105,0.262
12.154,-0.1681,-0.1535,0.0264,0.229
12.154,-0.1672,-0.0667,0.0447,0.185
12.154,-0.1593,0.0028,-0.006,0.159
12.154,-0.1469,0.0005,0.0363,0.151
12.154,-0.1062,-0.028,0.0165,0.111
12.154,-0.0874,-0.0371,0.0299,0.1
12.154,-0.0425,-0.0154,0.0028,0.045
12.154,-0.1356,-0.0034,0.0805,0.158
12.154,-0.2018,0.0252,0.0746,0.217
12.155,-0.2748,0.0464,0.0522,0.284
12.155,-0.364,0.0199,0.0179,0.365
12.155,-0.3838,-0.0585,-0.0709,0.395
12.155,-0.4319,-0.1126,-0.0143,0.447
12.155,-0.4157,-0.1852,0.0158,0.455
12.155,-0.3877,-0.2026,0.0267,0.438
12.155,-0.3457,-0.1772,0.0185,0.389
12.155,-0.2851,-0.1164,0.0342,0.31
12.155,-0.2107,-0.0632,0.0448,0.224
12.156,-0.1249,-0.0199,-0.0348,0.131
12.156,-0.0279,0.023,-0.0212,0.042
12.156,0.085,0.0418,-0.0081,0.095
12.156,0.0402,0.0107,0.012,0.043
12.156,0.0053,-0.0819,-0.0061,0.082
12.156,-0.0201,-0.1191,-0.0243,0.123
12.156,-0.0716,-0.1442,-0.0186,0.162
12.156,-0.1157,-0.1833,-0.0699,0.228
12.156,-0.2095,-0.1984,-0.0996,0.305
12.157,-0.3121,-0.2229,-0.0959,0.395
12.157,-0.4237,-0.1689,-0.1467,0.479
12.157,-0.4208,-0.113,-0.1354,0.456
12.157,-0.3826,-0.1146,-0.1457,0.425
12.157,-0.2117,-0.0805,-0.0611,0.235
12.157,-0.0515,0.034,-0.0055,0.062
12.157,0.0271,0.01,-0.0525,0.06
12.157,0.0912,-0.0518,-0.0611,0.121
12.157,0.1362,-0.1154,0.0135,0.179
12.158,0.1313,-0.1381,0.0498,0.197
12.158,0.1481,-0.1606,-0.0017,0.218
12.158,0.2456,-0.1876,-0.0931,0.323
12.158,0.1289,-0.1337,-0.0482,0.192
12.158,0.0342,-0.0922,0.0038,0.098
12.158,-0.0337,-0.0795,-0.0371,0.094
12.158,-0.0679,-0.0527,0.0602,0.105
12.158,-0.1536,-0.1162,0.1671,0.255
12.158,-6.3942,-0.1258,7.1325,9.58
12.159,-15.2017,-0.7202,22.24,26.949
12.16,-11.895,3.4332,2.648,12.661
12.161,-6.2557,4.6962,-5.8667,9.778
12.161,1.0035,2.7793,-11.2963,11.676
12.161,6.045,0.3428,-9.5286,11.29
12.161,8.52,-2.1301,-5.2829,10.249
12.161,8.8024,-4.0398,-0.6095,9.704
12.162,7.7715,-4.8759,1.6012,9.313
12.162,6.576,-4.0735,1.3395,7.851
12.162,4.8219,-2.8916,0.0185,5.623
12.162,3.7319,-2.2222,0.0457,4.344
12.162,2.5148,-1.2664,-0.6714,2.895
12.163,1.0971,-0.8852,-0.4572,1.482
12.163,0.5742,-0.0361,0.2177,0.615
12.163,-0.2692,0.4511,-0.0187,0.526
12.163,-1.2521,0.7104,0.739,1.618
12.163,-2.2165,1.6857,0.576,2.844
12.163,-3.1176,2.191,-0.4448,3.836
12.163,-3.7786,2.5399,-0.734,4.612
12.164,-3.9196,2.4986,-0.5979,4.687
12.164,-3.5263,2.0818,-0.2476,4.102
12.164,-2.9092,1.565,0.0493,3.304
12.164,-2.333,1.063,0.1233,2.567
12.164,-1.9958,0.6883,0.0391,2.112
12.164,-1.785,0.4262,-0.1722,1.843
12.164,-1.602,0.1907,-0.3671,1.655
12.165,-0.8469,0.4956,-0.0992,0.986
12.165,-0.6481,0.1741,-0.1723,0.693
12.165,-0.9095,-0.2666,-0.5184,1.08
12.165,-1.1131,-0.69,-0.6139,1.446
12.165,-1.0012,-1.0054,-0.7032,1.584
12.165,-0.8229,-1.2774,-0.7889,1.712
12.165,-0.3031,-1.1332,-0.5714,1.305
12.165,0.2863,-0.92,-0.2899,1.006
12.166,0.5808,-0.8359,-0.2356,1.045
12.166,0.7578,-0.8786,-0.2912,1.196
12.166,2.0948,-0.216,-0.2177,2.117
12.166,3.7642,0.1427,-0.1712,3.771
12.166,3.7212,0.0664,-0.0747,3.723
12.166,3.6582,-0.1171,-0.2811,3.671
12.167,2.6571,-0.25,0.8615,2.804
12.167,2.0608,-0.3466,0.338,2.117
12.167,1.1231,-0.3786,0.2561,1.213
12.167,-0.0438,0.0459,0.0599,0.087
12.167,-0.4655,0.3191,0.5337,0.777
12.167,-0.299,0.3982,1.1126,1.219
12.167,0.1179,0.2907,1.2776,1.316
12.167,0.5653,-0.0318,0.7293,0.923
12.167,0.8299,-0.3633,-0.1078,0.912
12.168,0.7894,-0.6894,-0.6844,1.252
12.168,0.5765,-0.8979,-0.9489,1.428
12.168,0.2166,-0.9099,-0.9807,1.355
12.168,-0.162,-0.6542,-0.8423,1.079
12.168,-0.4612,-0.2172,-0.5739,0.768
12.168,-0.9162,0.1928,-0.3783,1.01
12.168,-4.6236,0.8865,-1.2783,4.878
12.168,-2.3366,0.298,1.7891,2.958
12.169,-1.185,0.3406,2.1774,2.502
12.169,-0.2669,0.2921,1.1711,1.236
12.169,-0.5545,0.4159,-0.4274,0.814
12.169,-3.6166,0.7713,-1.7674,4.099
12.169,-3.0627,0.3445,0.5322,3.128
12.169,-2.126,0.14,1.8399,2.815
12.169,-1.0639,-0.0097,1.31,1.688
12.169,-0.1704,-0.195,0.0947,0.276
12.17,0.2836,-0.3033,-0.6229,0.749
12.17,0.4662,-0.342,-0.5206,0.778
12.17,0.6424,-0.2994,-0.0839,0.714
12.17,0.8174,-0.2686,0.1157,0.868
12.17,1.0177,-0.2498,0.0403,1.049
12.17,1.0285,-0.1495,-0.217,1.062
12.17,0.7854,-0.0421,-0.3384,0.856
12.17,0.4674,0.0534,-0.2592,0.537
12.171,0.2342,0.1081,0.0061,0.258
12.171,0.1477,0.2035,0.1348,0.285
12.171,0.2004,0.2892,0.0601,0.357
12.171,0.2995,0.3032,-0.0889,0.435
12.171,0.3543,0.2695,-0.1928,0.485
12.171,0.4294,0.0591,-0.0839,0.441
12.171,0.1297,0.0903,0.0249,0.16
12.171,-0.1863,0.0952,-0.0147,0.21
12.171,-0.3996,0.0284,-0.1405,0.425
12.172,-0.5224,-0.0096,-0.1829,0.554
12.172,-0.6291,-0.0834,-0.07,0.638
12.172,-0.6864,-0.2026,0.0547,0.718
12.172,-0.6966,-0.3457,0.1151,0.786
12.172,-0.7052,-0.3787,0.1495,0.814
12.172,-0.6714,-0.352,0.1724,0.777
12.172,-0.6144,-0.2728,0.1766,0.695
12.172,-0.5078,-0.189,0.1357,0.559
12.173,-0.4593,-0.0576,0.1117,0.476
12.173,-0.3873,0.0068,0.0973,0.399
12.173,-0.2915,0.0448,0.0493,0.299
12.173,-0.1932,0.109,0.0898,0.239
12.173,-0.0395,0.1373,0.1302,0.193
12.173,0.0863,0.1753,0.2137,0.29
12.173,0.163,0.1845,0.2373,0.342
12.173,0.1282,0.1627,0.2515,0.326
12.173,0.1159,0.1314,0.285,0.335
12.173,0.0418,0.081,0.3258,0.338
12.174,-0.0632,0.045,0.3069,0.317
12.174,-0.1729,-0.003,0.2379,0.294
12.174,-0.192,-0.0628,0.1665,0.262
12.174,-0.1946,-0.1153,0.1452,0.269
12.174,-0.1687,-0.0938,0.1239,0.229
12.174,-0.1695,-0.0244,0.0905,0.194
12.174,-0.1922,0.0831,0.0473,0.215
12.174,-0.1626,0.1188,-0.0294,0.203
12.174,-0.071,0.1401,-0.0897,0.181
12.174,0.0062,0.0802,-0.0664,0.104
12.175,0.1146,0.0204,-0.0743,0.138
12.175,0.185,-0.0178,-0.0967,0.21
12.175,0.2561,-0.0583,-0.167,0.311
12.175,0.2779,-0.1585,-0.2422,0.401
12.175,0.3101,-0.2369,-0.2866,0.484
12.175,0.2284,-0.2674,-0.2306,0.42
12.175,0.1448,-0.2739,-0.1461,0.343
12.175,0.064,-0.2971,-0.0928,0.318
12.175,-0.0428,-0.3107,-0.0466,0.317
12.176,-0.1398,-0.31,0.0046,0.34
12.176,-0.1984,-0.2543,0.0055,0.323
12.176,-0.2283,-0.2107,-0.0363,0.313
12.176,-0.2535,-0.1648,-0.0901,0.315
12.176,-0.2885,-0.1379,-0.1393,0.349
12.176,-0.3597,-0.1016,-0.1935,0.421
12.176,-0.4312,-0.0749,-0.2336,0.496
12.176,-0.4748,-0.0625,-0.238,0.535
12.176,-0.5049,-0.0574,-0.2163,0.552
12.176,-0.5047,-0.0403,-0.2474,0.563
12.177,-0.4885,-0.0257,-0.2641,0.556
12.177,-0.4468,0.0295,-0.1971,0.489
12.177,-0.4947,0.1491,-0.1277,0.532
12.177,-0.4549,0.1729,-0.1084,0.499
12.177,-0.4112,0.2229,-0.1175,0.482
12.177,-0.349,0.213,-0.1336,0.43
12.177,-0.2895,0.1362,-0.1445,0.351
12.177,-0.2325,0.1335,-0.1743,0.32
12.178,-0.1634,0.1117,-0.1631,0.257
12.178,-0.113,0.0923,-0.1564,0.214
12.178,-0.0692,0.1375,-0.1422,0.21
12.178,-0.0007,0.1491,-0.0751,0.167
12.178,0.0278,0.1631,-0.0603,0.176
12.178,0.0475,0.1914,-0.0094,0.197
12.178,0.0464,0.1839,-0.0038,0.19
12.178,0.022,0.1835,-0.0126,0.185
12.178,-0.0524,0.1234,0.0146,0.135
12.178,-0.0765,0.1423,0.1088,0.195
12.179,-0.0791,0.1252,0.172,0.227
12.179,-0.0867,0.1416,0.1636,0.233
12.179,-0.1015,0.1412,0.1793,0.25
12.179,-0.1236,0.1002,0.2,0.256
12.179,-0.1507,0.107,0.2016,0.274
12.179,-0.1039,0.1018,0.2226,0.266
12.179,-0.0644,0.0799,0.2244,0.247
12.179,-0.0298,0.0412,0.1521,0.16
12.179,0.0095,-0.0165,0.1014,0.103
12.179,0.0247,-0.0836,0.0721,0.113
12.18,0.0465,-0.1412,0.0168,0.15
12.18,0.0968,-0.2059,-0.0003,0.227
12.18,0.1348,-0.2131,-0.0367,0.255
12.18,0.1728,-0.1653,-0.0735,0.25
12.18,0.1942,-0.0888,-0.1273,0.249
12.18,0.2205,-0.0291,-0.1529,0.27
12.18,0.2039,0.0162,-0.143,0.25
12.18,0.1636,0.0568,-0.0832,0.192
12.18,0.0708,0.0925,-0.0405,0.123
12.18,-0.0337,0.0685,-0.0075,0.077
12.181,-0.1665,0.0158,0.0423,0.173
12.181,-0.3016,-0.0344,0.0992,0.319
12.181,-0.4102,-0.0702,0.1107,0.431
12.181,-0.5116,-0.0989,0.0674,0.525
12.181,-0.5342,-0.1155,0.041,0.548
12.181,-0.5282,-0.1083,-0.0094,0.539
12.181,-0.4793,-0.0963,-0.0549,0.492
12.181,-0.3971,-0.089,-0.0934,0.418
12.181,-0.3246,-0.077,-0.0984,0.348
12.182,-0.2233,-0.0793,-0.1227,0.267
12.182,-0.1455,-0.0433,-0.1449,0.21
12.182,-0.0961,-0.0313,-0.0764,0.127
12.182,-0.0366,-0.0048,-0.0033,0.037
12.182,-0.0219,-0.0286,0.0337,0.049
12.182,-0.0521,-0.0332,0.0684,0.092
12.182,-0.1199,-0.0712,0.1246,0.187
12.182,-0.1823,-0.1259,0.1714,0.28
12.182,-0.2467,-0.1471,0.1946,0.347
12.183,-0.2917,-0.185,0.2658,0.436
12.183,-0.277,-0.1704,0.3181,0.455
12.183,-0.2887,-0.1462,0.3252,0.459
12.183,-0.2813,-0.1221,0.275,0.412
12.183,-0.2836,-0.0908,0.2776,0.407
12.183,-0.25,-0.062,0.2803,0.381
12.183,-0.1784,-0.0547,0.2615,0.321
12.183,-0.083,-0.0571,0.2262,0.248
12.183,0.0051,-0.0666,0.2314,0.241
12.184,0.0883,-0.0474,0.2391,0.259
12.184,0.1306,-0.0115,0.2157,0.252
12.184,0.1203,0.0196,0.1852,0.222
12.184,0.1339,0.053,0.1595,0.215
12.184,0.176,0.0697,0.2009,0.276
12.184,0.1702,0.0791,0.235,0.301
12.184,0.1764,0.1076,0.1521,0.257
12.184,0.2018,0.1099,0.1385,0.268
12.184,0.2464,0.1169,0.1224,0.299
12.184,0.2623,0.0689,0.1064,0.291
12.185,0.2041,0.0545,0.0711,0.223
12.185,0.1696,0.0234,0.0643,0.183
12.185,0.1135,-0.0101,-0.0286,0.117
12.185,0.0861,-0.0244,-0.0953,0.131
12.185,0.0466,-0.041,-0.0808,0.102
12.185,-0.0121,-0.0194,-0.0664,0.07
12.185,-0.0494,0.0022,-0.0688,0.085
12.185,-0.0819,0.007,-0.0783,0.114
12.185,-0.0761,-0.024,-0.0806,0.113
12.185,-0.1062,-0.0263,-0.0876,0.14
12.186,-0.1195,-0.0502,-0.0491,0.139
12.186,-0.1329,-0.0956,-0.0199,0.165
12.186,-0.1057,-0.1074,-0.0478,0.158
12.186,-0.1333,-0.1193,-0.0397,0.183
12.186,-0.1107,-0.1144,-0.0553,0.169
12.186,-0.0521,-0.0881,-0.0611,0.119
12.186,-0.0151,-0.0331,-0.0335,0.049
12.186,0.0245,0.0123,-0.0536,0.06
12.186,-0.0956,0.069,-0.0874,0.147
12.186,-0.1792,0.0826,-0.007,0.197
12.187,-0.1485,0.1268,0.0491,0.201
12.187,-0.1158,0.147,0.055,0.195
12.187,-0.0738,0.1528,0.0228,0.171
12.187,-0.0581,0.1371,0.0288,0.152
12.187,-0.0161,0.0908,0.0536,0.107
12.187,-0.0168,0.071,0.0427,0.085
12.187,0.0231,0.0632,0.058,0.089
12.187,0.0298,0.0152,0.0565,0.066
12.187,0.0677,-0.0087,0.0527,0.086
12.187,0.113,-0.0371,0.0512,0.129
12.188,0.1014,-0.0605,0.076,0.14
12.188,0.114,-0.0979,0.1173,0.191
12.188,0.084,-0.1113,0.1016,0.173
12.188,0.0616,-0.1033,0.1169,0.168
12.188,0.0325,-0.0834,0.0799,0.12
12.188,-0.0605,-0.0566,0.0172,0.085
12.188,-0.1388,-0.0632,0.0001,0.152
12.189,-0.1003,-0.0793,0.0378,0.133
12.189,-0.1528,-0.0787,-0.0008,0.172
12.189,-0.1624,-0.0733,0.0369,0.182
12.189,-0.0346,-0.0847,0.0934,0.131
12.189,-0.0245,-0.0793,0.0567,0.101
12.189,-0.0264,-0.0621,0.0963,0.118
12.189,-0.057,-0.0142,0.1474,0.159
12.189,-0.5936,0.1186,-0.063,0.609
12.189,-1.4582,0.1302,0.0232,1.464
12.19,-0.9945,-0.0282,0.6431,1.185
12.19,-0.6616,-0.0598,0.4048,0.778
12.19,-0.5665,-0.0674,0.004,0.57
12.19,-0.4143,-0.0703,-0.0048,0.42
12.19,-0.2199,-0.0349,0.0867,0.239
12.19,-0.0331,0.0029,0.013,0.036
12.19,0.1273,0.0286,-0.1039,0.167
12.19,0.2784,0.0186,-0.1086,0.299
12.19,0.4084,0.0349,0.0014,0.41
12.19,0.5943,-0.0229,-0.0083,0.595
12.191,0.7741,-0.0757,-0.037,0.779
12.191,0.8358,-0.1069,-0.0419,0.844
12.191,0.7623,-0.0663,-0.0349,0.766
12.191,0.6254,-0.0256,0.0007,0.626
12.191,0.4415,0.0723,0.0529,0.45
12.191,0.2558,0.1535,0.0644,0.305
12.191,0.061,0.2059,0.0924,0.234
12.191,-0.1241,0.2033,0.1227,0.268
12.191,-0.2232,0.1648,0.1005,0.295
12.192,-0.2413,0.0905,0.0926,0.274
12.192,-0.2452,-0.0005,0.0847,0.259
12.192,-0.2615,-0.0841,0.0169,0.275
12.192,-0.266,-0.1558,-0.0316,0.31
12.192,-0.2974,-0.2249,-0.0875,0.383
12.192,-0.3341,-0.2319,-0.0862,0.416
12.192,-0.3666,-0.16,-0.085,0.409
12.192,-0.4043,-0.069,-0.0744,0.417
12.192,-0.3755,-0.0284,-0.0687,0.383
12.193,-0.3803,0.0145,0.0112,0.381
12.193,-0.3302,0.0191,0.1079,0.348
12.193,-0.3016,0.007,0.1115,0.322
12.193,-0.2967,-0.0147,0.089,0.31
12.193,-0.2535,-0.0316,0.0833,0.269
12.193,-0.2389,-0.0508,0.0418,0.248
12.193,-0.2409,-0.0605,0.0243,0.25
12.193,-0.2024,-0.0892,0.014,0.222
12.193,-0.1566,-0.1299,0.0013,0.203
12.194,-0.1441,-0.1442,-0.0043,0.204
12.194,-0.1723,-0.1394,0.0164,0.222
12.194,-0.1957,-0.1107,-0.0203,0.226
12.194,-0.2001,-0.1083,-0.0975,0.248
12.194,-0.1376,-0.0892,-0.1582,0.228
12.194,-0.0801,-0.1083,-0.1641,0.212
12.194,-0.0083,-0.0963,-0.144,0.173
12.194,0.0612,-0.0747,-0.1336,0.165
12.194,0.126,-0.0245,-0.1139,0.172
12.194,0.1696,0.0091,-0.0634,0.181
12.195,0.1897,-0.022,-0.0297,0.193
12.195,0.1481,-0.0625,-0.0128,0.161
12.195,0.0804,-0.1077,0.0398,0.14
12.195,-0.0038,-0.1529,0.1164,0.192
12.195,-0.1334,-0.1574,0.0711,0.218
12.195,-0.2344,-0.1428,0.0332,0.276
12.195,-0.2567,-0.145,0.0168,0.295
12.195,-0.2341,-0.1185,0.0316,0.264
12.195,-0.2,-0.1041,-0.011,0.226
12.195,-0.1353,-0.0801,-0.013,0.158
12.196,-0.1022,-0.0537,-0.0271,0.119
12.196,-0.0478,-0.0561,-0.0459,0.087
12.196,0.0136,-0.0418,-0.0817,0.093
12.196,0.0772,-0.0465,-0.0674,0.113
12.196,0.0715,-0.013,-0.0151,0.074
12.196,0.0443,0.0013,-0.0204,0.049
12.196,-0.0398,-0.001,-0.0042,0.04
12.196,-0.078,0.0085,0.0143,0.08
12.196,-0.0921,-0.0129,0.0256,0.096
12.196,-0.0418,-0.0697,-0.0154,0.083
12.197,-0.0273,-0.1166,0.0223,0.122
12.197,0.0228,-0.1441,0.0479,0.154
12.197,-0.0201,-0.1595,0.0473,0.168
12.197,-0.0815,-0.1439,0.0516,0.173
12.197,-0.1686,-0.0905,0.0653,0.202
12.197,-0.1887,-0.0589,0.1028,0.223
12.197,-0.2847,-0.011,0.0997,0.302
12.197,-0.6085,0.0697,0.0516,0.615
12.197,-0.5339,0.05,0.2319,0.584
12.197,-0.306,0.0091,0.2804,0.415
12.198,-0.068,-0.0006,0.1006,0.121
12.198,0.1042,-0.0292,-0.0519,0.12
12.198,0.1163,-0.0551,-0.106,0.167
12.198,0.0668,-0.0239,-0.0864,0.112
12.198,0.0417,0.0143,-0.0433,0.062
12.198,0.0028,0.0522,-0.0578,0.078
12.198,-0.1066,0.0779,-0.0627,0.146
12.198,-0.0699,0.0892,0.0225,0.116
12.198,-0.09,0.1407,0.0833,0.187
12.199,-0.0097,0.1516,0.0891,0.176
12.199,-0.0602,0.1742,-0.005,0.184
12.199,-0.1003,0.1564,-0.0082,0.186
12.199,-0.159,0.1078,0.0218,0.193
12.199,-0.2125,0.0502,0.0325,0.221
12.199,-0.2586,0.0167,-0.021,0.26
12.199,-0.2404,-0.0188,-0.0361,0.244
12.199,-0.2346,-0.0445,-0.0584,0.246
12.199,-0.2552,-0.0487,-0.0448,0.264
12.2,-0.2357,-0.0458,0.0042,0.24
12.2,-0.2974,-0.05,-0.016,0.302
12.2,-0.3521,-0.0329,0.0161,0.354
12.2,-0.1787,-0.0562,0.0908,0.208
12.2,-0.1516,-0.0082,0.0082,0.152
12.2,-0.0749,-0.0176,0.007,0.077
12.2,-0.0107,-0.0197,-0.0131,0.026
12.2,-0.0799,-0.0147,-0.0593,0.101
12.2,-0.1628,-0.0548,-0.0244,0.174
12.2,-0.0981,-0.1065,0.0721,0.162
12.201,-0.0506,-0.0747,0.0302,0.095
12.201,0.0037,-0.0361,-0.0303,0.047
12.201,0.1124,0.0212,-0.012,0.115
12.201,0.0564,0.0875,-0.0698,0.125
12.201,0.1529,0.094,0.0032,0.18
12.201,0.2775,0.1052,0.0354,0.299
12.201,0.4562,0.0903,0.053,0.468
12.201,0.5085,0.1158,-0.0126,0.522
12.201,0.1029,0.1744,-0.0874,0.221
12.201,0.1661,0.0688,0.2089,0.276
12.202,0.3649,-0.0051,0.2771,0.458
12.202,-0.3188,0.2103,-0.1496,0.41
12.202,-0.5983,0.1074,0.2247,0.648
12.202,-0.2494,0.1122,0.2622,0.379
12.202,-0.5754,0.0119,0.0486,0.578
12.202,-0.4164,0.0741,-0.0809,0.431
12.202,-0.6095,-0.153,0.1386,0.644
12.202,-0.4324,-0.1625,0.239,0.52
12.202,0.113,-0.2937,0.165,0.355
12.203,0.3765,-0.3005,-0.0329,0.483
12.203,0.3586,-0.238,-0.1088,0.444
12.203,0.2816,-0.1611,-0.1249,0.348
12.203,0.3082,-0.1345,-0.0022,0.336
12.203,0.4,-0.0816,0.0248,0.409
12.203,0.1838,-0.0001,-0.0797,0.2
12.203,0.0136,0.0504,-0.0049,0.052
12.203,-0.1663,0.1102,0.1513,0.25
12.203,-0.4373,0.2034,0.1378,0.502
12.203,-0.7925,0.2558,0.1221,0.842
12.204,-0.845,0.2005,0.171,0.885
12.204,-1.1116,0.1929,-0.0119,1.128
12.204,-1.3846,0.0848,0.0374,1.388
12.204,-0.4128,-0.2024,0.4673,0.656
12.204,0.2378,-0.2264,-0.0187,0.329
12.204,0.128,-0.1643,-0.5384,0.577
12.204,0.2601,-0.126,-0.2355,0.373
12.204,0.1124,0.0054,-0.0693,0.132
12.205,-0.662,0.1222,-0.164,0.693
12.205,0.209,-0.1005,0.4733,0.527
12.205,0.3699,-0.0193,0.0298,0.372
12.205,0.0483,0.014,-0.2702,0.275
12.205,0.0307,0.0019,0.0158,0.035
12.205,-0.0156,0.0184,0.139,0.141
12.205,-0.0072,0.0086,-0.0033,0.012
12.205,0.1063,-0.0441,-0.1194,0.166
12.205,0.2462,-0.0992,-0.1232,0.293
12.205,0.2811,-0.1016,-0.156,0.337
12.206,0.2111,-0.08,-0.1029,0.248
12.206,0.0933,-0.0656,-0.0354,0.119
12.206,0.0307,-0.0752,0.0249,0.085
12.206,0.0089,-0.0919,0.035,0.099
12.206,-0.0272,-0.0799,0.0332,0.091
12.206,-0.0776,-0.0775,0.003,0.11
12.206,-0.1496,-0.0321,-0.075,0.17
12.206,-0.1931,0.0061,-0.1171,0.226
12.206,-0.1555,-0.0347,-0.1642,0.229
12.207,-0.0681,-0.0754,-0.1612,0.191
12.207,0.0096,-0.0969,-0.1081,0.145
12.207,0.0467,-0.073,-0.0789,0.117
12.207,0.0768,-0.0539,-0.0424,0.103
12.207,0.112,0.0082,-0.025,0.115
12.207,0.1188,0.0655,0.002,0.136
12.207,0.133,0.1346,0.0147,0.19
12.207,0.1405,0.1822,0.0442,0.234
12.207,0.1388,0.17,0.0523,0.226
12.207,0.1543,0.1435,0.0412,0.215
12.208,-0.026,0.1481,-0.0057,0.15
12.208,0.0835,0.0595,0.1147,0.154
12.208,0.112,0.0093,0.0774,0.136
12.208,0.0906,-0.0337,0.0592,0.113
12.208,0.096,-0.0933,0.0842,0.158
12.208,0.0537,-0.1194,0.1356,0.188
12.208,0.0118,-0.1407,0.1439,0.202
12.208,-0.1089,-0.1524,0.1573,0.245
12.208,-0.2104,-0.1593,0.1684,0.313
12.208,-0.2715,-0.1423,0.1796,0.355
12.209,-0.352,-0.1374,0.1145,0.395
12.209,-0.3681,-0.1086,0.1188,0.402
12.209,-0.3656,-0.1419,0.1566,0.422
12.209,-0.3443,-0.1538,0.178,0.417
12.209,-0.9934,-0.0033,-0.1737,1.008
12.209,-1.6127,0.0036,0.0918,1.615
12.21,-2.7056,0.2467,-0.0823,2.718
12.21,-2.7344,-0.1177,0.7263,2.832
12.21,-0.3379,-0.5081,1.0957,1.254
12.21,0.3193,-0.3983,-0.5534,0.753
12.21,0.4177,-0.2049,-0.9806,1.085
12.21,0.5382,-0.0522,-0.1887,0.573
12.21,1.0562,-0.0001,0.2344,1.082
12.21,1.5804,-0.0219,-0.1702,1.59
12.21,1.8778,-0.0602,-0.3813,1.917
12.211,1.8507,-0.0098,-0.2242,1.864
12.211,1.3554,0.1339,-0.1799,1.374
12.211,0.6759,0.2059,-0.1025,0.714
12.211,-0.0045,0.2443,0.0536,0.25
12.211,-0.4238,0.2397,0.1906,0.523
12.211,-0.5707,0.149,0.1747,0.615
12.211,-0.6512,0.111,-0.0133,0.661
12.211,-0.6439,0.0849,-0.1631,0.67
12.211,-0.5394,0.0708,-0.208,0.582
12.212,-0.4428,0.0185,-0.203,0.487
12.212,-0.3681,-0.0457,-0.129,0.393
12.212,-0.2746,-0.1265,-0.1055,0.32
12.212,-0.1955,-0.1618,-0.1421,0.291
12.212,-0.2025,-0.1492,-0.1837,0.312
12.212,-0.164,-0.1151,-0.1417,0.245
12.212,-0.1879,-0.0237,-0.1599,0.248
12.212,-0.3413,0.0963,-0.1354,0.38
12.213,-0.3683,0.1181,-0.0392,0.389
12.213,-0.3624,0.1375,-0.0147,0.388
12.213,-0.3592,0.0564,-0.0404,0.366
12.213,-0.3586,-0.0485,0.0228,0.363
12.213,-0.4061,-0.1055,0.1271,0.438
12.213,-0.5303,-0.0933,0.1051,0.549
12.213,-0.5998,-0.0859,0.1172,0.617
12.213,-0.6197,-0.1217,0.1514,0.649
12.213,-0.6257,-0.1503,0.0907,0.65
12.214,-0.6133,-0.191,0.0136,0.643
12.214,-0.6111,-0.2125,-0.0247,0.647
12.214,-0.5641,-0.2126,-0.0412,0.604
12.214,-0.5179,-0.1936,-0.0096,0.553
12.214,-0.4697,-0.1102,-0.028,0.483
12.214,-0.4147,-0.003,0.0084,0.415
12.214,-0.3359,0.1183,0.0642,0.362
12.214,-0.2258,0.2133,0.0914,0.324
12.214,-0.1129,0.258,-0.0009,0.282
12.214,0.0029,0.2142,-0.1243,0.248
12.215,0.0809,0.1204,-0.1498,0.209
12.215,0.1642,-0.0091,-0.149,0.222
12.215,0.224,-0.0738,-0.1771,0.295
12.215,0.2772,-0.0834,-0.2006,0.352
12.215,0.2519,-0.081,-0.2052,0.335
12.215,0.1888,-0.0882,-0.1813,0.276
12.215,0.0973,-0.0713,-0.172,0.21
12.215,0.006,-0.0211,-0.1653,0.167
12.215,-0.0948,-0.0091,-0.1516,0.179
12.216,-0.1911,0.022,-0.1979,0.276
12.216,-0.2971,0.0028,-0.1823,0.349
12.216,-0.3461,-0.0498,-0.1883,0.397
12.216,-0.3502,-0.0927,-0.2279,0.428
12.216,-0.3044,-0.15,-0.2247,0.407
12.216,-0.1969,-0.1571,-0.2,0.322
12.216,-0.0729,-0.1522,-0.1754,0.243
12.216,0.0344,-0.1305,-0.1845,0.229
12.216,0.1131,-0.0993,-0.2128,0.261
12.216,0.1732,-0.0825,-0.1694,0.256
12.217,0.2124,-0.0416,-0.1524,0.265
12.217,0.1612,0.0493,-0.1714,0.24
12.217,0.0746,0.145,-0.1835,0.245
12.217,-0.0354,0.1833,-0.1862,0.264
12.217,-0.0757,0.2001,-0.2081,0.298
12.217,-0.1637,0.2025,-0.204,0.331
12.217,-0.1752,0.1858,-0.1236,0.284
12.217,-0.182,0.1787,-0.1246,0.284
12.217,-0.2153,0.1405,-0.1209,0.284
12.217,-0.1987,0.0666,-0.1077,0.236
12.218,-0.1801,0.05,-0.0683,0.199
12.218,-0.138,0.0095,-0.0455,0.146
12.218,-0.1439,-0.019,-0.0563,0.156
12.218,-0.1931,-0.069,-0.0478,0.211
12.218,-0.2712,-0.1285,-0.0608,0.306
12.218,-0.3615,-0.1856,-0.0498,0.409
12.218,-0.3828,-0.1973,-0.0124,0.431
12.218,-0.402,-0.1923,0.0182,0.446
12.218,-0.357,-0.1801,-0.0133,0.4
12.218,-0.3219,-0.1537,-0.023,0.357
12.219,-0.3278,-0.1201,-0.0374,0.351
12.219,-0.3099,-0.1034,-0.0374,0.329
12.219,-0.3186,-0.0795,-0.0373,0.33
12.219,-0.3181,-0.07,-0.0157,0.326
12.219,-0.3035,-0.0295,-0.0107,0.305
12.219,-0.2461,-0.0034,-0.0128,0.246
12.219,-0.1793,0.037,-0.0124,0.184
12.219,-0.0959,0.063,-0.0359,0.12
12.219,-0.065,0.0411,-0.0115,0.078
12.22,-0.0268,0.0146,-0.0181,0.036
12.22,-0.0388,0.0239,-0.0152,0.048
12.22,-0.058,-0.0003,-0.0983,0.114
12.22,-0.0677,-0.0077,-0.0906,0.113
12.22,-0.0602,-0.0244,-0.0634,0.091
12.22,-0.0004,-0.0553,-0.0743,0.093
12.22,0.0475,-0.0622,-0.0708,0.105
12.22,0.0789,-0.0428,-0.053,0.104
12.22,0.0845,-0.026,-0.0067,0.089
12.221,0.024,-0.0448,0.0275,0.058
12.221,-0.0832,-0.0849,0.0593,0.133
12.221,-0.1563,-0.1366,0.072,0.22
12.221,-0.21,-0.2091,0.0372,0.299
12.221,-0.1972,-0.2622,0.0243,0.329
12.221,-0.1302,-0.2816,0.052,0.315
12.221,-0.0116,-0.2249,0.082,0.24
12.221,0.1063,-0.145,0.0859,0.199
12.221,0.2167,-0.0728,0.1137,0.255
12.221,0.2175,-0.0368,0.151,0.267
12.222,0.1404,0.0084,0.1523,0.207
12.222,0.0261,0.0319,0.1062,0.114
12.222,-0.0637,0.0552,0.0035,0.084
12.222,-0.1317,0.0593,-0.1057,0.179
12.222,-0.1282,0.0729,-0.2213,0.266
12.222,-0.0848,0.0958,-0.27,0.299
12.222,-0.035,0.1423,-0.2546,0.294
12.222,-0.0283,0.2003,-0.2017,0.286
12.222,0.0353,0.2863,-0.1781,0.339
12.223,0.0961,0.3551,-0.174,0.407
12.223,0.1077,0.4144,-0.1453,0.452
12.223,0.067,0.4115,-0.1216,0.434
12.223,0.0004,0.3394,-0.1053,0.355
12.223,-0.0636,0.2578,-0.0772,0.277
12.223,-0.1059,0.1452,-0.0922,0.202
12.223,-0.1243,0.0233,-0.0523,0.137
12.223,-0.1549,-0.0746,-0.0245,0.174
12.223,-0.1617,-0.1533,-0.0516,0.229
12.223,-0.2095,-0.2056,-0.043,0.297
12.224,-0.2457,-0.2722,-0.044,0.369
12.224,-0.2775,-0.291,-0.002,0.402
12.224,-0.3169,-0.3098,0.0281,0.444
12.224,-0.3616,-0.2999,0.0511,0.473
12.224,-0.3063,-0.2996,-0.0381,0.43
12.224,-0.2322,-0.2588,-0.0555,0.352
12.224,-0.1417,-0.2084,-0.0513,0.257
12.224,-0.0417,-0.151,-0.0805,0.176
12.224,0.0748,-0.1127,-0.0882,0.162
12.225,0.1772,-0.0673,-0.0863,0.208
12.225,0.2606,-0.0506,-0.1227,0.292
12.225,0.3037,-0.0243,-0.1399,0.335
12.225,0.3328,-0.0244,-0.1307,0.358
12.225,0.343,-0.0029,-0.1121,0.361
12.225,0.3153,0.0306,-0.1318,0.343
12.225,0.2425,0.0329,-0.1658,0.296
12.225,0.1509,0.021,-0.157,0.219
12.225,0.0931,-0.034,-0.1291,0.163
12.225,0.0376,-0.0673,-0.125,0.147
12.226,-0.0297,-0.0911,-0.116,0.15
12.226,-0.0805,-0.091,-0.1405,0.186
12.226,0.0649,-0.1075,-0.0933,0.156
12.226,0.0764,-0.05,-0.0986,0.134
12.226,0.1741,-0.0428,-0.001,0.179
12.226,0.222,-0.0164,0.0776,0.236
12.226,0.1913,-0.0211,0.0967,0.215
12.226,0.1418,-0.0401,0.0515,0.156
12.226,0.0568,-0.0472,0.0233,0.077
12.226,-0.0092,-0.0711,-0.0191,0.074
12.227,-0.0368,-0.0829,-0.0756,0.118
12.227,0.0023,-0.0709,-0.0888,0.114
12.227,0.0268,-0.035,-0.0614,0.076
12.227,0.0941,0.008,-0.0172,0.096
12.227,0.1063,0.0748,-0.0423,0.137
12.227,0.0803,0.1129,-0.0984,0.17
12.227,-0.0006,0.1366,-0.0826,0.16
12.227,-0.0693,0.0981,-0.1216,0.171
12.227,-0.1239,0.0525,-0.1654,0.213
12.227,-0.1883,-0.0027,-0.2069,0.28
12.228,-0.2412,-0.1008,-0.184,0.32
12.228,-0.2323,-0.1487,-0.1729,0.326
12.228,-0.1616,-0.1367,-0.1402,0.254
12.228,-0.1054,-0.0627,-0.0596,0.136
12.228,-0.075,0.0657,0.0138,0.101
12.228,-0.0327,0.1385,0.0202,0.144
12.228,-0.0047,0.1585,0.029,0.161
12.228,0.014,0.1594,0.0522,0.168
12.228,0.0211,0.1365,0.035,0.143
12.229,0.0473,0.1067,0.0038,0.117
12.229,0.0473,0.0535,-0.0058,0.072
12.229,0.033,0.0315,0.0156,0.048
12.229,0.0115,0.0073,0.0107,0.017
12.229,0.0304,0,-0.0156,0.034
12.229,0.0418,0.0045,-0.0583,0.072
12.229,0.0505,-0.0194,-0.0654,0.085
12.229,0.0897,-0.0313,-0.0677,0.117
12.229,0.1354,-0.0147,-0.0559,0.147
12.229,0.233,0.0351,-0.0157,0.236
12.23,0.3041,0.037,0.0242,0.307
12.23,0.2777,0.0365,0.0519,0.285
12.23,0.1619,0.029,0.0438,0.17
12.23,0.09,0.0002,0.0406,0.099
12.23,0.0308,-0.0711,0.0138,0.079
12.23,-0.0564,-0.1299,0.0157,0.143
12.23,-0.136,-0.1693,-0.0037,0.217
12.23,-0.2199,-0.1562,0.0223,0.271
12.23,-0.2821,-0.0886,0.0221,0.297
12.23,-0.2349,0.0068,-0.0089,0.235
12.231,-0.1455,0.0778,-0.0612,0.176
12.231,-0.0926,0.1149,-0.0921,0.174
12.231,-0.0664,0.1233,-0.0731,0.158
12.231,-0.0334,0.16,-0.0473,0.17
12.231,0.035,0.1657,0.0042,0.169
12.231,0.1291,0.1808,0.0031,0.222
12.231,0.0778,0.1744,-0.0623,0.201
12.232,0.0625,0.1349,0.0009,0.149
12.232,0.0189,0.0981,0.0089,0.1
12.232,0.0278,0.0521,0.0096,0.06
12.232,-0.0274,-0.0149,0.01,0.033
12.232,-0.0327,-0.0291,0.0461,0.064
12.232,-0.0904,-0.055,0.0367,0.112
12.232,-0.1315,-0.0784,0.0202,0.154
12.232,-0.3415,-0.059,-0.0697,0.353
12.232,-0.313,-0.1228,0.0451,0.339
12.233,-0.0071,-0.205,0.1732,0.268
12.233,-0.1359,-0.1774,0.0274,0.225
12.233,-0.1548,-0.1739,0.0584,0.24
12.233,0.1278,-0.2534,0.2675,0.39
12.233,0.1401,-0.2065,0.1667,0.3
12.233,0.0786,-0.1671,0.081,0.202
12.233,0.1102,-0.1399,0.1432,0.229
12.233,0.1178,-0.1058,0.129,0.204
12.233,0.1302,-0.0887,0.1055,0.19
12.234,0.0926,-0.0621,0.0418,0.119
12.234,-0.0967,-0.0026,-0.0618,0.115
12.234,0.157,-0.0598,0.1128,0.202
12.234,0.2048,-0.0026,0.0178,0.206
12.234,0.0183,0.0849,-0.1568,0.179
12.234,-5.9066,1.3603,-2.3145,6.488
12.234,2.6881,-0.776,2.9158,4.041
12.235,-0.055,0.1804,-0.1922,0.269
12.235,-2.3511,0.4713,-0.9579,2.582
12.235,0.8724,-0.2251,1.1188,1.436
12.235,0.9596,-0.1727,0.9119,1.335
12.235,-1.2607,0.3815,-0.5236,1.417
12.235,1.6005,-0.3578,0.9344,1.888
12.235,-0.2642,0.0054,0.1086,0.286
12.235,1.1019,-0.1767,0.192,1.132
12.235,-0.3253,-0.0789,-0.1961,0.388
12.236,0.9928,-0.1652,0.2291,1.032
12.236,-0.6925,0.0473,-0.1478,0.71
12.236,2.1502,-0.3569,0.6588,2.277
12.236,-0.7937,0.2504,-0.7009,1.088
12.236,2.3815,-0.4431,0.8182,2.557
12.236,-0.2185,0.2098,-0.5989,0.671
12.236,1.7965,-0.3401,0.6811,1.951
12.236,0.7986,0.0332,-0.349,0.872
12.237,0.3717,-0.0575,-0.0854,0.386
12.237,1.6842,-0.2365,0.1612,1.708
12.237,-0.7377,0.2181,-0.6755,1.024
12.237,1.8035,-0.2813,0.5247,1.899
12.237,-1.0532,0.3885,-0.7742,1.364
12.237,1.2492,-0.135,0.631,1.406
12.237,-0.4141,0.3411,-0.4795,0.72
12.237,-0.3933,0.2048,0.0574,0.447
12.238,0.8107,0.0376,0.3311,0.877
12.238,-1.2285,0.4011,-0.471,1.375
12.238,0.7502,-0.1511,0.563,0.95
12.238,-0.1869,0.086,-0.1245,0.24
12.238,-1.1574,0.1889,-0.3213,1.216
12.238,0.4497,-0.2771,0.5313,0.749
12.238,-0.2204,-0.0519,0.0139,0.227
12.238,-1.0058,0.1084,-0.2494,1.042
12.238,-0.3593,-0.1162,0.2091,0.432
12.239,0.3415,-0.1375,0.2544,0.448
12.239,-0.6062,0.0539,-0.2501,0.658
12.239,-1.0257,0.1446,-0.3074,1.08
12.239,0.9413,-0.2021,0.489,1.08
12.239,-0.0481,0.1208,-0.1947,0.234
12.239,-1.2313,0.3787,-0.6393,1.438
12.239,-0.0833,-0.0113,0.1686,0.188
12.239,1.2272,-0.2502,0.5126,1.353
12.24,-0.2843,0.1014,-0.4343,0.529
12.24,-2.2504,0.4502,-0.8723,2.455
12.24,1.4004,-0.4872,1.1045,1.849
12.24,0.9227,-0.2095,0.2915,0.99
12.24,-1.0035,0.0345,-0.6217,1.181
12.24,-0.4016,-0.1759,0.0309,0.439
12.24,1.5226,-0.453,0.8397,1.797
12.24,0.0054,-0.0869,-0.0945,0.128
12.24,-1.4132,0.2047,-0.6034,1.55
12.241,0.8345,-0.3548,0.6812,1.134
12.241,1.0161,-0.1967,0.4527,1.13
12.241,-0.7435,0.1906,-0.4238,0.877
12.241,-1.3096,0.2788,-0.3083,1.374
12.241,0.2759,-0.0873,0.5632,0.633
12.241,0.3064,-0.0395,0.2822,0.418
12.241,-0.8635,0.1994,-0.4078,0.976
12.241,-1.0171,0.0915,-0.1677,1.035
12.242,0.4142,-0.2123,0.5198,0.698
12.242,-0.1132,-0.0927,0.1413,0.203
12.242,-0.0804,-0.1668,-0.0314,0.188
12.242,0.0079,-0.1787,0.0759,0.194
12.242,0.1873,-0.1428,0.2027,0.311
12.242,0.0516,-0.0377,0.0978,0.117
12.242,0.2632,-0.0282,0.0769,0.276
12.242,-0.1179,0.1437,-0.0778,0.201
12.242,0.1306,0.1171,0.0401,0.18
12.243,0.0802,0.1981,-0.1123,0.241
12.243,-0.1323,0.236,-0.1619,0.315
12.243,0.0094,0.2427,-0.0874,0.258
12.243,-0.0856,0.2089,-0.135,0.263
12.243,0.1426,0.1441,-0.1087,0.23
12.243,0.1655,0.1009,-0.0824,0.211
12.243,0.3658,0.0147,0.006,0.366
12.243,-0.2709,0.1485,-0.2643,0.407
12.244,0.518,-0.1981,0.1158,0.567
12.244,0.2213,-0.0306,-0.4533,0.505
12.244,-0.5248,-0.0089,-0.0166,0.525
12.244,0.9941,-0.3602,0.6837,1.259
12.244,-0.1484,0.0345,-0.2917,0.329
12.244,-0.4271,-0.006,-0.4664,0.632
12.244,-0.2348,-0.2378,0.0068,0.334
12.244,0.6437,-0.2877,0.2486,0.748
12.244,-0.3815,-0.0364,-0.2511,0.458
12.244,-0.0336,-0.0912,-0.0335,0.103
12.245,0.1825,-0.1413,0.0984,0.251
12.245,0.1786,-0.1698,0.0368,0.249
12.245,0.1246,-0.1673,-0.0677,0.219
12.245,0.1451,-0.1623,-0.0789,0.232
12.245,0.1322,-0.1358,-0.0732,0.203
12.245,0.0311,-0.0711,-0.1177,0.141
12.245,-0.058,-0.0041,-0.184,0.193
12.245,-0.1545,0.0604,-0.2121,0.269
12.245,-0.1913,0.101,-0.2189,0.308
12.246,-0.1854,0.1392,-0.1735,0.29
12.246,-0.1727,0.1462,-0.157,0.275
12.246,-0.1218,0.1031,-0.1336,0.208
12.246,-0.0591,0.1007,-0.084,0.144
12.246,-0.0106,0.1078,-0.0822,0.136
12.246,-0.024,0.1388,-0.2429,0.281
12.246,0.1756,0.0623,-0.1339,0.229
12.246,0.0093,0.0695,0.4224,0.428
12.246,-0.0107,0.0838,0.1544,0.176
12.246,0.0268,0.0384,-0.1853,0.191
12.247,-0.0239,0.0049,-0.2044,0.206
12.247,-0.0864,-0.0547,-0.0345,0.108
12.247,-0.1349,-0.0833,-0.0008,0.159
12.247,-0.1648,-0.0784,-0.0697,0.195
12.247,-0.1903,-0.1261,-0.1528,0.275
12.247,-0.1541,-0.1475,-0.1045,0.238
12.247,-0.1253,-0.1952,-0.0225,0.233
12.247,-0.0203,-0.1974,0.0477,0.204
12.247,0.1016,-0.2021,0.0488,0.231
12.248,0.1735,-0.1852,0.031,0.256
12.248,0.1716,-0.1468,-0.0344,0.228
12.248,0.1249,-0.0774,-0.1235,0.192
12.248,0.1934,-0.032,-0.5427,0.577
12.248,0.0752,0.0302,0.4485,0.456
12.248,-0.0933,0.1232,0.1704,0.23
12.248,-0.0181,0.1277,-0.3469,0.37
12.248,-0.0149,0.0582,-0.4365,0.441
12.248,-0.3179,0.0605,-0.3279,0.461
12.248,0.2255,-0.1403,0.0913,0.281
12.249,-0.0803,-0.0375,-0.0729,0.115
12.249,0.0065,-0.0924,-0.2108,0.23
12.249,0.0097,-0.0899,-0.301,0.314
12.249,0.0057,-0.0898,-0.2503,0.266
12.249,-0.0178,-0.0514,-0.1879,0.196
12.249,-0.0036,-0.0227,-0.116,0.118
12.249,0.0316,-0.0059,-0.0802,0.086
12.249,0.0593,0.0012,-0.0779,0.098
12.249,0.0776,0.0227,-0.1354,0.158
12.25,0.1007,0.0251,-0.169,0.198
12.25,0.0165,0.0657,-0.2316,0.241
12.25,-0.0266,0.0562,-0.2513,0.259
12.25,-0.0456,0.0442,-0.2353,0.244
12.25,-0.0468,0.0298,-0.237,0.243
12.25,-0.0234,-0.0083,-0.2578,0.259
12.25,-0.047,0.0015,-0.305,0.309
12.25,-0.0433,-0.0575,-0.2856,0.295
12.25,-0.048,-0.0661,-0.2166,0.232
12.25,-0.0426,-0.0652,-0.2171,0.231
12.251,-0.0373,-0.0643,-0.2178,0.23
12.251,-0.0323,-0.0633,-0.2187,0.23
12.251,-0.028,-0.0624,-0.2194,0.23
12.251,-0.0242,-0.0615,-0.2201,0.23
12.251,-0.0207,-0.0607,-0.2207,0.23
12.251,-0.0171,-0.0598,-0.2211,0.23
12.251,-0.0129,-0.0589,-0.222,0.23
12.251,-0.0091,-0.0581,-0.2229,0.231
12.251,-0.0058,-0.0572,-0.224,0.231
12.252,-0.0024,-0.0563,-0.225,0.232
12.252,0.0007,-0.0555,-0.226,0.233
12.252,0.0036,-0.0546,-0.2271,0.234
12.252,0.0062,-0.0538,-0.2281,0.234
12.252,0.0082,-0.053,-0.2291,0.235
12.252,0.0096,-0.0523,-0.2299,0.236
12.252,0.0104,-0.0516,-0.2307,0.237
12.252,0.011,-0.0509,-0.2316,0.237
12.253,0.0111,-0.0502,-0.2325,0.238
12.253,0.0111,-0.0495,-0.2335,0.239
12.253,0.0112,-0.0488,-0.2346,0.24
12.253,0.0113,-0.0481,-0.2358,0.241
12.253,0.0118,-0.0474,-0.2371,0.242
12.253,0.0127,-0.0467,-0.2383,0.243
12.253,0.122,0.2333,-0.0048,0.263
12.253,0.148,0.2287,-0.0416,0.276
12.254,0.1362,0.1882,-0.0235,0.233
12.254,0.1916,0.1406,0.0422,0.241
12.254,0.2257,0.0405,0.1412,0.269
12.254,0.2244,-0.0092,0.2163,0.312
12.254,0.0994,-0.0421,0.2533,0.275
12.254,-0.064,-0.0775,0.35,0.364
12.254,-0.1902,-0.1033,0.4352,0.486
12.254,-0.2508,-0.0766,0.4372,0.51
12.254,-0.2524,-0.0142,0.3251,0.412
12.255,-0.2995,0.06,0.2112,0.371
12.255,-0.3654,0.072,0.1621,0.406
12.255,-0.4071,0.0338,0.2111,0.46
12.255,-0.4082,-0.0115,0.2507,0.479
12.255,-0.4093,-0.0664,0.2714,0.496
12.255,-0.3627,-0.071,0.2661,0.455
12.255,-0.1918,-0.0661,0.2778,0.344
12.255,-0.0402,-0.0541,0.2205,0.231
12.255,0.0305,0.0081,0.2115,0.214
12.256,0.0468,0.0607,0.3102,0.32
12.256,0.0137,0.0988,0.3637,0.377
12.256,0.0341,0.0605,0.3912,0.397
12.256,0.0193,0.0079,0.3664,0.367
12.256,0.0052,-0.047,0.3634,0.366
12.256,0.0446,0.0104,0.3034,0.307
12.256,0.0086,0.1013,0.2868,0.304
12.256,-0.0436,0.0894,0.2658,0.284
12.256,-0.0669,0.0989,0.2378,0.266
12.257,-0.0591,0.0988,0.2195,0.248
12.257,-0.0226,0.0845,0.2086,0.226
12.257,-0.0001,0.0486,0.1621,0.169
12.257,0.018,-0.0326,0.0632,0.073
12.257,-0.0184,-0.1137,-0.0786,0.139
12.257,-0.0589,-0.1587,-0.1366,0.218
12.261,-0.1727,-0.1917,-0.1207,0.285
12.266,-0.2839,-0.239,-0.0618,0.376
12.271,-0.271,-0.1811,-0.0959,0.34
12.275,-0.2585,-0.269,0.1284,0.395
12.281,-0.1799,-0.1586,0.1946,0.309
12.286,-0.155,-0.132,-0.0853,0.221
12.291,-0.0064,-0.0601,-0.7275,0.73
12.295,-0.0612,-0.0051,0.9063,0.908
12.299,-0.1614,0.2149,0.5034,0.571
12.303,-0.1825,0.1859,-0.4663,0.534
12.308,-0.3659,0.083,-0.19,0.421
12.315,-0.2142,-0.2228,-0.2289,0.385
12.32,-0.4787,0.3775,-0.0213,0.61
12.325,-0.2925,0.0903,0.1264,0.331
12.33,-0.2576,-0.1033,-0.0179,0.278
12.335,-0.1226,-0.2369,0.3473,0.438
12.339,-0.2824,-0.0741,0.2484,0.383
12.343,-0.3139,-0.0645,-0.0963,0.335
12.347,-0.3388,-0.0789,-0.2162,0.41
12.353,-0.3643,-0.0884,-0.2673,0.46
12.357,-0.2729,-0.1505,-0.2878,0.424
12.362,-0.1484,-0.1217,0.3343,0.385
12.367,-0.1277,-0.1001,0.0807,0.181
12.372,-0.2031,-0.093,-0.0195,0.224
12.377,-0.3074,-0.05,-0.1271,0.336
12.382,-0.3712,-0.105,-0.23,0.449
12.387,-0.0718,-0.0524,0.0872,0.125
12.391,-0.0906,0.1794,0.21,0.291
12.396,0.1126,0.2532,0.1987,0.341
12.401,0.2772,0.2695,0.321,0.503
12.406,0.4248,0.0827,0.1851,0.471
12.41,0.4621,-0.1039,0.0472,0.476
12.415,0.4682,-0.0991,-0.0237,0.479
12.42,0.4459,0.0062,-0.0232,0.447
12.425,0.3786,0.1304,-0.0085,0.401
12.43,0.3072,0.159,-0.0134,0.346
12.435,0.1983,0.0514,-0.0424,0.209
12.44,0.1377,-0.0919,-0.0741,0.181
12.444,0.0987,-0.2087,-0.0894,0.248
12.449,-0.0123,-0.2847,-0.0215,0.286
12.454,-0.1069,-0.296,0.0125,0.315
12.459,-0.1301,-0.2572,0.0104,0.288
12.464,-0.0675,-0.1993,0.0391,0.214
12.469,0.0592,-0.1224,-0.0018,0.136
12.474,0.1832,-0.0551,-0.0143,0.192
12.478,0.3166,0.0073,0.0494,0.321
12.483,0.364,0.0577,0.1202,0.388
12.488,0.3449,0.0747,0.1191,0.372
12.493,0.3024,0.0845,0.0486,0.318
12.498,0.1885,0.1182,-0.029,0.224
12.503,0.058,0.2093,-0.0496,0.223
12.508,0.0137,0.3887,-0.1945,0.435
12.513,0.0342,0.4747,0.0738,0.482
12.517,0.0909,0.4483,0.327,0.562
12.522,-0.0095,0.2978,0.1929,0.355
12.528,-0.1835,0.2382,-0.0053,0.301
12.533,-0.3885,0.162,0.0188,0.421
12.537,-0.5723,0.1194,0.1837,0.613
12.541,-0.6757,0.103,0.3507,0.768
12.546,-0.6104,0.0865,0.3172,0.693
12.552,-0.4911,0.0484,0.1669,0.521
12.556,-0.4035,-0.0016,0.1774,0.441
12.561,-0.3998,-0.011,0.3269,0.517
12.566,-0.7977,-1.0266,0.1685,1.311
12.571,-1.2745,0.1839,0.2646,1.315
12.576,0.1081,1.6508,0.0932,1.657
12.58,0.4963,1.2471,0.1988,1.357
12.585,0.2262,0.6051,0.3917,0.756
12.59,-0.0062,0.0883,0.1261,0.154
12.595,0.1187,-0.1004,-0.2248,0.273
12.6,0.4126,-0.9364,-0.573,1.173
12.605,0.453,-0.6933,-0.0466,0.829
12.609,0.4276,-0.2353,0.2788,0.562
12.614,0.4097,-0.1078,0.2725,0.504
12.619,0.3273,-0.1334,0.2741,0.447
12.628,0.1781,-0.1638,0.1948,0.311
12.63,0.0359,-0.2204,0.0205,0.224
12.635,-0.0469,-0.172,-0.1083,0.209
12.638,0.0087,-0.1211,-0.0796,0.145
12.644,0.1761,0.0109,-0.0012,0.176
12.649,0.2117,0.1285,0.0147,0.248
12.653,0.1662,0.2388,0.0423,0.294
12.657,-0.0344,0.2701,0.1197,0.297
12.663,-0.1774,0.3564,0.1303,0.419
12.67,-0.4206,0.3589,0.2052,0.59
12.672,-0.602,0.4378,0.2274,0.778
12.677,-0.7528,0.4282,0.1729,0.883
12.682,-0.8207,0.3707,0.073,0.903
12.686,-0.7269,0.244,0.1042,0.774
12.692,-0.5002,0.1101,0.1713,0.54
12.697,-0.2407,0.1628,0.3177,0.431
12.701,-0.1269,0.0313,0.6152,0.629
12.706,0.0729,-0.1025,0.4121,0.431
12.711,0.1558,-0.1047,0.2847,0.341
12.716,-0.158,-0.2599,0.1025,0.321
12.72,-0.2928,-0.3122,0.123,0.445
12.726,-0.1844,-0.4552,0.098,0.501
12.731,0.0665,-0.5217,0.0321,0.527
12.735,0.238,-0.5522,-0.0459,0.603
12.741,0.2947,-0.5515,-0.0498,0.627
12.748,0.1702,-0.5628,-0.0799,0.593
12.75,-0.1139,-0.5693,-0.1052,0.59
12.754,-0.4667,-0.5327,-0.059,0.711
12.759,-0.6689,-0.4101,0.0157,0.785
12.765,-0.7331,-0.1706,0.0875,0.758
12.769,-0.6265,-0.063,-0.0155,0.63
12.774,-1.0273,-0.3762,-0.1066,1.099
12.779,-0.1114,-0.2014,0.9511,0.979
12.785,0.8229,0.1715,1.5148,1.732
12.789,1.0584,0.238,0.0255,1.085
12.793,0.7877,0.2901,-1.0533,1.347
12.798,0.3892,0.2872,-0.9985,1.109
12.803,0.4376,0.6048,0.0405,0.748
12.808,0.5384,0.8001,0.1097,0.971
12.813,0.4436,0.4527,0.2629,0.686
12.818,0.1296,0.0436,0.2675,0.3
12.822,-0.1477,-0.1904,0.1647,0.292
12.828,-0.2791,-0.2832,0.0907,0.408
12.832,-0.2264,-0.3065,0.0645,0.386
12.837,-0.0903,-0.2988,0.1149,0.333
12.842,-0.0451,-0.2051,0.1201,0.242
12.847,-0.0931,-0.1282,0.1038,0.189
12.853,0.0646,-0.135,-0.0294,0.153
12.856,-0.1719,0.1784,0.4755,0.536
12.861,-0.4273,-0.4858,0.5405,0.843
12.866,0.0524,-0.621,0.8639,1.065
12.872,0.5242,-0.0368,-0.5482,0.759
12.88,0.5963,0.1833,-0.7231,0.955
12.88,0.4431,0.4177,-0.0709,0.613
12.886,0.3449,0.4343,0.1543,0.576
12.89,0.2637,0.3123,0.0875,0.418
12.895,0.1516,0.1738,0.0443,0.235
12.9,0.0706,0.1191,0.0965,0.169
12.905,0.0181,0.0454,0.0625,0.079
12.909,-0.0631,-0.0379,0.2651,0.275
12.914,-0.0942,-0.0637,0.2787,0.301
12.919,-0.1259,0.0324,0.2637,0.294
12.924,-0.1414,0.2,0.0312,0.247
12.929,-0.1454,0.3075,0.0574,0.345
12.934,-0.1808,0.4149,0.2459,0.515
12.939,-0.2357,0.3476,0.2838,0.507
12.944,-0.3482,0.0653,0.1644,0.391
12.948,-0.6633,-0.4844,0.13,0.832
12.953,-1.0893,-1.6643,0.4724,2.044
12.958,-0.8633,-1.2488,0.5707,1.622
12.963,-0.1209,-1.4027,0.1695,1.418
12.968,0.4449,-0.7032,-0.1756,0.85
12.973,0.478,0.4209,-0.4387,0.773
12.978,0.4821,0.9676,-0.2505,1.11
12.983,0.1678,0.902,0.1027,0.923
12.987,0.186,0.079,0.3566,0.41
12.993,0.0224,0.3468,0.3516,0.494
12.997,-0.1528,0.5353,0.0753,0.562
13.002,-0.1676,0.5945,0.3611,0.715
13.007,-0.1287,0.3167,0.1293,0.365
13.011,-0.0689,0.0534,-0.2671,0.281
13.017,0.0083,-0.1999,-0.199,0.282
13.022,-0.3631,-0.5388,0.0673,0.653
13.026,-0.4918,-0.7626,0.157,0.921
13.031,-0.5175,-0.5153,0.0997,0.737
13.035,-0.3188,-0.1418,0.134,0.374
13.04,-0.2979,0.4177,0.4474,0.681
13.045,-0.4387,0.6657,0.2876,0.848
13.05,-0.3492,0.5143,-0.0747,0.626
13.055,-0.0219,0.4371,-0.0484,0.44
13.06,0.4072,0.3122,0.0295,0.514
13.065,0.6237,0.2043,0.2154,0.691
13.07,0.4371,0.1754,0.2176,0.519
13.075,0.2395,0.106,0.048,0.266
13.08,0.0807,0.063,-0.0641,0.121
13.084,-0.0466,0.1085,-0.0807,0.143
13.096,-0.1068,0.1134,0.046,0.162
13.096,-0.0881,0.0107,0.12,0.149
13.099,-0.0601,-0.0489,0.2539,0.265
13.104,0.0273,-0.1491,0.0508,0.16
13.11,0.2007,-0.2922,-0.0564,0.359
13.113,0.3575,-0.4207,-0.0222,0.553
13.118,0.1298,-0.408,0.2869,0.515
13.123,-0.0785,-0.3333,0.2942,0.451
13.128,-0.0527,-0.2944,0.1843,0.351
13.133,0.1233,-0.1959,0.0624,0.24
13.138,0.2679,-0.0976,-0.0306,0.287
13.147,0.3026,0.0389,-0.0566,0.31
13.147,0.2253,0.1992,-0.0705,0.309
13.156,0.0718,0.3378,-0.0655,0.351
13.157,-0.0456,0.3878,0.0133,0.391
13.164,-0.127,0.3828,0.0846,0.412
13.167,-0.1201,0.3109,0.0982,0.347
13.172,-0.0703,0.1722,0.1308,0.227
13.176,-0.04,0.0336,-0.0353,0.063
13.183,0.093,-0.0809,-0.0578,0.136
13.186,0.1327,-0.1355,0.0392,0.194
13.193,0.1057,-0.1327,0.1387,0.219
13.195,0.0285,-0.0964,0.1307,0.165
13.2,0.035,-0.0793,0.0939,0.128
13.205,0.0412,-0.0814,0.1051,0.139
13.21,0.083,-0.0739,0.1354,0.175
13.215,0.1033,-0.0402,0.137,0.176
13.22,0.114,-0.0232,0.1052,0.157
13.225,0.0794,-0.1018,0.0878,0.156
13.229,-0.0363,-0.1397,0.0749,0.163
13.234,-0.0873,0.0065,-0.0859,0.123
13.239,-0.2098,0.0951,0.0308,0.232
13.245,-0.306,0.2243,0.0469,0.382
13.249,-0.3331,0.2552,0.0368,0.421
13.254,-0.3389,0.181,0.005,0.384
13.259,-0.4142,0.0351,0.0831,0.424
13.264,-0.5136,0.0305,0.163,0.54
13.268,-0.1068,-0.0627,-0.1228,0.174
13.273,0.0891,-0.3733,-0.0829,0.393
13.278,-0.0376,-0.3202,0.0284,0.324
13.283,-0.0064,-0.1524,0.0296,0.155
13.288,0.1105,-0.1234,0.0735,0.181
13.292,0.1317,-0.171,0.0551,0.223
13.297,0.1601,-0.1874,0.0008,0.246
13.302,0.1575,-0.1535,0.0064,0.22
13.307,0.1073,-0.1436,0.1098,0.21
13.312,0.0405,0.0264,0.0695,0.085
13.317,0.012,0.0432,0.063,0.077
13.321,-0.0665,0.0959,0.0705,0.136
13.326,-0.0256,0.053,0.0159,0.061
13.333,-0.0038,0.0507,0.0783,0.093
13.336,-0.0538,0.0819,0.138,0.169
13.343,0.0109,0.2182,0.0948,0.238
13.346,0.2164,0.1942,-0.1584,0.331
13.351,0.1755,0.1559,-0.2559,0.347
13.355,-0.0274,0.2396,-0.1574,0.288
13.36,-0.2348,0.2969,-0.021,0.379
13.365,-0.459,0.2489,0.1221,0.536
13.37,-0.6427,0.0911,0.1904,0.676
13.375,-0.349,0.0314,-0.0069,0.35
13.379,-0.1112,-0.2577,-0.0484,0.285
13.384,0.1144,-0.286,-0.1233,0.332
13.389,0.1034,-0.4553,0.0652,0.471
13.394,-0.1481,-0.237,0.2124,0.351
13.399,0.2814,0.1075,-0.2616,0.399
13.404,0.3519,-0.2534,-0.1942,0.475
13.409,0.003,-0.0473,0.0254,0.054
13.414,-0.2281,-0.0326,0.1472,0.273
13.418,-0.4446,0.159,0.1369,0.492
13.423,0.1267,0.1278,-0.523,0.553
13.428,0.2792,-0.1064,-0.3879,0.49
13.433,-0.0192,0.2644,-0.1027,0.284
13.437,-0.2954,0.4531,0.013,0.541
13.442,-0.7171,0.2401,0.1926,0.78
13.447,-1.2127,-0.214,0.3188,1.272
13.452,-0.9461,-0.2732,0.0645,0.987
13.457,0.1765,-0.4498,-0.4731,0.676
13.462,0.8555,-0.7313,-0.3759,1.187
13.467,0.6108,-0.367,-0.0203,0.713
13.472,-0.3536,0.0973,0.3014,0.475
13.476,-0.4375,0.6591,-0.2307,0.824
13.481,-0.1257,0.6513,-0.2866,0.723
13.486,0.5314,0.4164,-0.2782,0.73
13.491,0.3351,0.2822,-0.0095,0.438
13.496,-0.1802,0.3252,0.0247,0.373
13.501,-0.4487,0.5354,-0.0485,0.7
13.506,-0.3258,0.4895,-0.0431,0.59
13.51,-0.0248,-0.2423,-0.0432,0.247
13.515,0.2304,-0.7747,0.0068,0.808
13.521,0.4379,-0.7306,-0.0647,0.854
13.527,0.414,-0.4738,-0.0614,0.632
13.53,0.2594,-0.2554,0.009,0.364
13.534,-0.186,-0.2763,0.0889,0.345
13.539,-0.2865,0.3075,-0.0031,0.42
13.544,-0.2896,0.4125,0.008,0.504
13.549,-0.3359,0.178,0.1261,0.401
13.554,-0.2916,0.1398,0.0316,0.325
13.559,-0.2236,0.1397,-0.0625,0.271
13.564,-0.2609,0.0011,-0.0848,0.274
13.569,-0.3937,0.0037,-0.0401,0.396
13.573,-0.3353,0.0683,0.074,0.35
13.578,-0.103,-0.0321,0.0516,0.12
13.584,0.0333,-0.3188,0.015,0.321
13.588,0.1077,-0.335,-0.0857,0.362
13.593,-0.0352,-0.3728,-0.1715,0.412
13.597,-0.2605,0.0054,-0.0348,0.263
13.603,0.1446,-0.0686,-0.0416,0.165
13.607,0.5009,-0.1425,-0.2925,0.597
13.612,0.6231,0.0131,-0.273,0.68
13.617,0.478,0.0515,-0.072,0.486
13.622,0.2262,0.0876,-0.0052,0.243
13.627,-0.4192,0.0925,0.0428,0.431
13.632,-0.7817,0.7236,0.1005,1.07
13.637,-0.9325,1.0096,0.1035,1.378
13.641,-0.7163,0.7574,0.309,1.087
13.646,-0.4059,0.2353,0.2537,0.533
13.651,-0.4519,-0.42,0.0725,0.621
13.656,-0.619,-0.1782,-0.0845,0.65
13.661,0.1191,-0.4029,-0.3336,0.537
13.665,0.0964,0.2283,-0.1936,0.314
13.671,0.0002,0.2374,0.0656,0.246
13.675,-0.545,0.3135,-0.1246,0.641
13.68,-0.6431,1.1801,-0.6174,1.479
13.684,0.4116,-0.8364,0.6641,1.145
13.689,0.3422,-0.8213,0.6533,1.104
13.694,1.136,-0.6342,-0.547,1.411
13.699,0.5942,-0.8965,-0.2506,1.104
13.704,0.2842,-0.5823,-0.301,0.714
13.709,0.1016,-0.0558,-0.1788,0.213
13.714,-0.1027,0.4199,0.1002,0.444
13.718,-0.1785,0.5603,0.1898,0.618
13.723,0.5333,0.7984,-0.1172,0.967
13.728,0.9018,0.594,-0.0244,1.08
13.733,0.5301,0.1868,-0.1256,0.576
13.738,-0.3655,-0.2579,-0.1451,0.47
13.743,-1.3705,0.0867,0.2128,1.39
13.748,-1.0761,0.8203,0.1857,1.366
13.753,-0.1654,0.4916,0.0263,0.519
13.758,0.9373,0.259,-0.2861,1.014
13.762,1.2532,0.0409,-0.4395,1.329
13.767,0.9326,-0.1144,-0.0884,0.944
13.772,0.2101,-0.1595,0.2457,0.361
13.777,-2.08,-1.1579,0.6606,2.471
13.782,-2.5186,-0.3673,0.7886,2.665
13.787,-1.1048,0.3356,0.2653,1.185
13.792,1.3863,0.208,-0.5594,1.509
13.796,2.6373,-0.5909,-0.7379,2.802
13.801,2.3519,-0.6642,-0.4238,2.48
13.806,-0.6628,-1.3176,0.3967,1.527
13.811,-1.733,0.169,0.8511,1.938
13.816,-0.276,0.7713,0.0813,0.823
13.82,1.4705,-0.5297,-0.5648,1.662
13.825,1.5989,-0.2777,-0.4266,1.678
13.831,1.3622,-0.162,0.0347,1.372
13.835,0.6531,-0.0985,0.0668,0.664
13.841,0.4385,-0.3504,-0.1236,0.575
13.845,-2.8443,-0.2722,0.2377,2.867
13.85,-4.9543,0.7448,1.3216,5.181
13.855,-1.8073,0.8942,0.1264,2.02
13.859,0.7104,0.1087,-0.4619,0.854
13.864,1.4534,-0.4796,-0.7835,1.719
13.869,1.0585,-0.1563,-0.5069,1.184
13.874,0.3502,0.4679,0.071,0.589
13.879,-0.2354,0.6539,0.3066,0.76
13.884,0.6437,0.5051,0.0539,0.82
13.888,0.1239,0.445,-0.1012,0.473
13.893,-0.3258,0.3586,0.0186,0.485
13.898,-0.3333,0.2126,0.0261,0.396
13.903,0.3662,0.0332,-0.1455,0.395
13.908,0.7281,-0.1005,-0.2503,0.776
13.913,-0.3244,-0.081,-0.0849,0.345
13.918,-0.9049,0.0102,0.2527,0.94
13.923,-0.1212,-0.071,0.0911,0.167
13.927,-1.0331,0.18,0.1473,1.059
13.932,-0.0974,-0.0808,0.1031,0.163
13.937,-0.1117,-0.1095,-0.0678,0.17
13.942,0.6605,-0.2504,-0.0355,0.707
13.947,0.584,-0.1545,-0.104,0.613
13.952,-1.1482,-0.0275,0.0691,1.151
13.956,0.3875,-0.1853,0.1917,0.47
13.961,1.4027,-0.1755,-0.1594,1.423
13.966,1.3954,-0.0365,-0.2117,1.412
13.971,0.5317,0.0787,-0.049,0.54
13.976,-0.0267,0.0313,0.2474,0.251
13.981,-1.0366,0.2492,0.0513,1.067
13.986,-1.3493,0.1702,0.2136,1.377
13.99,-1.2669,0.0074,0.1173,1.272
13.995,-1.0139,-0.0454,0.1431,1.025
14,-0.0044,-0.0552,0.0686,0.088
14.005,0.0435,-0.022,-0.0797,0.093
14.01,-0.0799,0.0304,0.0426,0.096
14.015,-0.1026,0.1019,0.1167,0.186
14.019,-0.0847,0.1589,0.1286,0.221
14.024,0.0882,0.1514,0.133,0.22
14.029,0.2491,0.1032,0.0607,0.276
14.034,0.2163,0.0886,0.0457,0.238
14.992,0.2148,0.0884,0.045,0.237
14.992,-0.382,0.0188,-0.0202,0.383
14.993,0.5251,0.0163,0.3754,0.646
14.993,0.3944,0.0545,0.0155,0.398
14.993,0.3312,0.0639,0.0697,0.344
14.993,0.125,0.0997,0.124,0.202
14.994,-0.1625,0.0804,0.164,0.244
14.994,-0.3952,0.1065,0.1634,0.441
14.994,-0.4655,0.0751,0.1272,0.488
14.994,-0.4188,0.0174,0.1221,0.437
14.995,-0.3291,-0.0497,0.1101,0.351
14.995,-0.256,-0.1526,0.0266,0.299
14.995,-0.1778,-0.2769,-0.0518,0.333
14.995,-0.0611,-0.3244,-0.0344,0.332
14.996,-0.0421,-0.3193,-0.1032,0.338
14.996,-0.023,-0.2879,-0.0668,0.296
14.996,-0.0324,-0.1824,-0.0425,0.19
14.996,0.0731,-0.0842,-0.1354,0.175
14.997,0.119,-0.029,-0.1159,0.169
14.997,0.0481,0.1097,-0.0772,0.143
14.997,-0.0346,0.1814,-0.0625,0.195
14.997,-0.1746,0.1837,-0.0716,0.263
14.998,-0.3169,0.1716,-0.0615,0.366
14.998,-0.3112,0.114,-0.0348,0.333
14.998,-0.2387,0.1617,-0.0512,0.293
14.998,-0.0754,0.1735,-0.1082,0.218
14.999,0.1,0.0467,-0.072,0.132
14.999,0.2233,-0.1181,-0.0286,0.254
14.999,0.2635,-0.316,-0.0135,0.412
14.999,0.2733,-0.3488,-0.017,0.443
15,0.1928,-0.2954,-0.0134,0.353
15,0.0216,-0.2373,0.0403,0.242
15,-0.1831,-0.0933,0.0868,0.223
15,-0.2278,0.0624,0.0089,0.236
15.001,-0.0529,0.0316,-0.0405,0.074
15.001,0.0549,0.0868,0.0416,0.111
15.001,-0.012,0.1395,0.0471,0.148
15.001,-0.0911,0.13,0.1147,0.196
15.001,-0.1128,0.1014,0.0962,0.18
15.002,-0.1154,0.0776,0.0275,0.142
15.002,-0.1372,0.104,-0.0196,0.173
15.002,-0.1665,0.1088,-0.0501,0.205
15.003,-0.1983,0.0969,-0.0615,0.229
15.003,-0.2519,0.1017,-0.0849,0.285
15.003,-0.2722,0.1494,-0.027,0.312
15.003,-0.2569,0.1589,0.0162,0.302
15.004,-0.2466,0.1205,0.0307,0.276
15.004,-0.2364,0.075,0.038,0.251
15.004,-0.1691,0.0056,0.0882,0.191
15.004,-0.1331,-0.0446,0.1192,0.184
15.004,-0.1427,-0.0781,0.143,0.217
15.005,-0.107,-0.1091,0.1812,0.237
15.005,-0.1312,-0.1162,0.1455,0.228
15.005,-0.1435,-0.0779,0.0884,0.186
15.005,-0.1536,-0.0732,0.0792,0.188
15.006,-0.1925,-0.0876,0.0844,0.228
15.006,-0.2053,-0.0853,0.1017,0.244
15.008,-0.1897,-0.0448,0.1309,0.235
15.008,-0.1707,0.017,0.1068,0.202
15.01,-0.1092,0.0783,0.0972,0.166
15.01,-0.0362,0.1343,0.0236,0.141
15.01,0.0388,0.1733,-0.0116,0.178
15.011,0.0943,0.1907,-0.0347,0.216
15.011,0.1213,0.1534,-0.0578,0.204
15.011,0.1104,0.133,-0.0641,0.184
15.011,0.0738,0.0726,-0.0562,0.118
15.012,-0.0027,0.0079,-0.0247,0.026
15.012,-0.0786,-0.0064,0.0041,0.079
15.012,-0.1515,-0.0657,0.0636,0.177
15.012,-0.1978,-0.0889,0.0775,0.23
15.013,-0.1965,-0.0953,0.0582,0.226
15.013,-0.1953,-0.0851,0.0367,0.216
15.013,-0.1989,-0.0513,-0.0344,0.208
15.013,-0.155,-0.0486,-0.0741,0.179
15.014,-0.1209,-0.0317,-0.0898,0.154
15.014,-0.0871,-0.0054,-0.1149,0.144
15.014,-0.0654,0.0207,-0.0947,0.117
15.014,-0.0509,0.011,-0.0724,0.089
15.014,0.0064,0.0322,-0.0811,0.088
15.015,0.0491,0.0201,-0.0567,0.078
15.015,0.0776,-0.018,-0.0609,0.1
15.015,0.0538,-0.0534,0.0159,0.077
15.015,-0.0337,-0.0837,-0.0075,0.091
15.016,-0.1253,-0.0735,0.0051,0.145
15.016,-0.1734,-0.0586,0.02,0.184
15.016,-0.2024,-0.0581,0.0299,0.213
15.016,-0.16,-0.0315,-0.0124,0.164
15.016,-0.1204,-0.0123,0.0028,0.121
15.017,-0.0408,-0.0003,0.0059,0.041
15.017,-0.0092,0.0305,-0.0054,0.032
15.017,0.0317,0.054,0.0095,0.063
15.017,0.039,0.0607,-0.014,0.074
15.017,0.0488,0.0508,-0.0185,0.073
15.018,0.0608,0.0457,-0.0232,0.08
15.018,0.0584,0.0763,0.0314,0.101
15.018,0.0535,0.0971,0.0545,0.123
15.018,0.0392,0.0868,0.0513,0.108
15.019,0.0368,0.0482,0.0837,0.103
15.019,0.0416,0.0147,0.0896,0.1
15.019,0.0629,-0.0281,0.0575,0.09
15.02,0.0629,-0.0609,0.0422,0.097
15.02,0.0368,-0.0722,0.0435,0.092
15.02,0.0228,-0.0976,0.0306,0.105
15.021,0.0042,-0.1227,0.0487,0.132
15.021,-0.0308,-0.1239,0.0596,0.141
15.021,-0.0252,-0.099,0.0372,0.109
15.022,-0.0268,-0.0696,0.0197,0.077
15.022,-0.0355,-0.0476,0.0214,0.063
15.022,-0.0014,-0.0328,0.0253,0.041
15.022,-0.0223,-0.0206,0.0125,0.033
15.023,-0.0218,-0.0061,-0.0025,0.023
15.023,0.0785,0.0012,0.1723,0.189
15.023,0.1352,0.0203,0.1368,0.193
15.023,0.1585,0.0345,0.0589,0.173
15.024,0.1319,0.0178,-0.0017,0.133
15.024,0.082,0.0297,-0.0428,0.097
15.024,-0.0006,0.0297,-0.0979,0.102
15.024,-0.0991,0.0225,-0.131,0.166
15.025,-0.1873,0.006,-0.133,0.23
15.025,-0.3484,0.0559,-0.1727,0.393
15.025,-0.4411,0.4068,-0.0899,0.607
15.025,-0.6601,0.2685,-0.5507,0.901
15.026,-0.6722,-0.1819,-0.3529,0.781
15.026,-0.2993,-0.4086,0.1629,0.532
15.026,0.2256,-0.5347,0.4732,0.749
15.026,0.5433,-0.6606,0.5669,1.026
15.027,0.2665,-0.7959,0.5067,0.98
15.027,-0.0412,-0.1329,0.1371,0.195
15.027,-0.2343,0.4241,-0.1564,0.509
15.027,-0.3634,0.6625,-0.1303,0.767
15.028,-0.3302,0.6665,-0.0283,0.744
15.028,-0.1394,0.4457,0.04,0.469
15.028,-0.0779,0.3543,-0.0305,0.364
15.028,-0.0332,0.2439,0.081,0.259
15.029,0.0284,0.1767,0.1209,0.216
15.029,0.0114,0.1239,0.0965,0.157
15.029,0.0328,0.0664,0.058,0.094
15.029,-0.0221,0.0233,-0.0426,0.053
15.03,-0.0888,-0.0245,-0.1191,0.151
15.03,-0.0861,-0.089,-0.0521,0.134
15.03,-0.1215,-0.1605,-0.0592,0.21
15.03,-0.1474,-0.2081,-0.0471,0.259
15.03,-0.1446,-0.2222,-0.0252,0.266
15.031,-0.1249,-0.2075,-0.046,0.247
15.031,-0.0309,-0.1619,-0.057,0.174
15.031,0.0368,-0.066,-0.0729,0.105
15.031,0.0374,0.0154,-0.0293,0.05
15.032,0.0091,0.056,-0.0172,0.059
15.032,0.0069,0.0775,-0.0125,0.079
15.032,0.0334,0.0799,-0.0247,0.09
15.032,0.0526,0.0679,-0.0131,0.087
15.033,0.0359,0.0845,0.0535,0.106
15.033,0.0024,0.094,0.0556,0.109
15.033,-0.0429,0.0939,0.046,0.113
15.033,-0.0617,0.0412,-0.0089,0.075
15.034,-0.0518,-0.0114,-0.0421,0.068
15.034,-0.0585,-0.0615,-0.013,0.086
15.034,-0.0508,-0.0303,0.0352,0.069
15.034,-0.0359,-0.0016,0.0525,0.064
15.034,-0.0089,0.0247,0.053,0.059
15.035,-0.0659,0.0653,0.0654,0.114
15.035,-0.0775,0.0796,0.1111,0.157
15.035,-0.0296,0.0556,0.152,0.165
15.035,-0.0154,0.0483,0.1523,0.161
15.036,-0.0923,0.1532,0.0024,0.179
15.036,-0.2342,0.2963,-0.0762,0.385
15.036,0.4609,0.0066,0.672,0.815
15.036,0.1971,0.0065,-0.0067,0.197
15.037,0.2472,-0.0891,-0.1349,0.295
15.037,0.1467,-0.0819,-0.0264,0.17
15.037,0.1946,-0.0722,0.1965,0.286
15.037,-0.0302,-0.0124,-0.0013,0.033
15.038,-1.1259,0.2262,-1.2023,1.663
15.038,-4.4569,0.8151,-4.4886,6.378
15.039,-1.3097,-0.2766,0.7885,1.554
15.039,-0.5616,-0.2461,2.534,2.607
15.039,-0.2082,0.1261,2.1647,2.178
15.04,0.345,0.192,1.1973,1.261
15.04,1.3076,-0.0648,0.454,1.386
15.04,1.9253,-0.3232,-0.1133,1.956
15.04,2.0522,-0.3779,-0.3311,2.113
15.041,2.0517,-0.3773,-0.3288,2.112
15.041,2.0524,-0.3765,-0.3266,2.112
15.041,2.0536,-0.3756,-0.3246,2.113
15.043,2.0544,-0.3748,-0.3226,2.113
15.043,2.0544,-0.3741,-0.3198,2.112
15.043,2.0536,-0.3736,-0.3166,2.111
15.044,2.0521,-0.3732,-0.3132,2.109
15.044,2.0498,-0.373,-0.3091,2.106
15.044,2.0472,-0.3728,-0.3048,2.103
15.045,2.0448,-0.3725,-0.3008,2.1
15.045,2.0424,-0.3722,-0.2974,2.097
15.046,2.0401,-0.372,-0.294,2.094
15.046,2.0376,-0.3717,-0.2904,2.091
15.046,2.035,-0.3714,-0.2873,2.089
15.047,2.0324,-0.3711,-0.2847,2.085
15.047,2.0296,-0.3708,-0.2828,2.082
15.047,2.0265,-0.3704,-0.2816,2.079
15.048,0.0589,0.0027,0.0945,0.111
15.048,-0.0543,-0.0811,-0.3156,0.33
15.048,0.2248,-0.1337,0.1855,0.321
15.049,0.0974,-0.0668,0.1048,0.158
15.049,-0.1613,-0.0071,-0.2651,0.31
15.049,-0.0207,-0.0191,-0.037,0.047
15.05,-0.1191,0.0023,-0.1104,0.162
15.05,-0.2652,0.0333,-0.2053,0.337
15.05,-0.3563,0.0307,-0.2211,0.42
15.05,-0.395,0.0114,-0.1437,0.42
15.051,-0.393,-0.0318,-0.0733,0.401
15.052,-0.3075,-0.0678,0.1047,0.332
15.056,-0.2126,-0.0536,0.2655,0.344
15.061,-0.2424,-0.0537,0.048,0.253
15.066,-0.1719,-0.0467,-0.1359,0.224
15.079,-0.0176,-0.0779,-0.0372,0.088
15.079,0.008,-0.1401,0.0735,0.158
15.083,0.0055,-0.1758,0.1889,0.258
15.086,-0.095,-0.0347,0.0267,0.105
15.09,-0.1265,0.1756,-0.1213,0.248
15.095,-0.0123,0.1251,0.0725,0.145
15.1,0.028,0.0293,0.1446,0.15
15.105,0.0067,0.0029,0.2434,0.244
15.11,0.0096,0.0889,0.3492,0.36
15.122,-0.0764,0.1581,0.1197,0.213
15.122,-0.103,0.1531,-0.1048,0.212
15.13,-0.0531,0.0931,0.0319,0.112
15.13,-0.0271,0.0307,0.1158,0.123
15.134,-0.135,0.002,-0.0301,0.138
15.139,-0.1759,-0.0196,-0.1016,0.204
15.144,-0.1546,-0.0244,-0.0799,0.176
15.148,-0.1429,-0.0221,0.0036,0.145
15.154,-0.1791,-0.0268,0.0462,0.187
15.158,-0.1699,-0.0412,0.1199,0.212
15.163,-0.1202,-0.0484,0.2293,0.263
15.168,-0.0657,-0.0484,0.2001,0.216
15.173,-0.0038,-0.0818,0.1496,0.171
15.177,0.025,-0.1271,0.0492,0.139
15.182,-0.0176,-0.1484,-0.0676,0.164
15.19,-0.0717,-0.1697,-0.0862,0.203
15.193,-0.1516,-0.1956,-0.0902,0.263
15.197,-0.193,-0.1881,-0.0581,0.276
15.203,-0.2197,-0.1901,0.0005,0.291
15.206,-0.232,-0.1969,0.0784,0.314
15.211,-0.2084,-0.1391,0.1203,0.278
15.221,-0.1705,-0.1005,0.1787,0.267
15.221,-0.1924,-0.0357,0.1986,0.279
15.226,-0.3225,0.0959,0.1006,0.351
15.231,-0.372,0.3728,0.0375,0.528
15.235,-0.2018,0.4882,0.0121,0.528
15.24,0.0831,0.3536,0.0917,0.375
15.245,0.1866,0.1475,0.15,0.281
15.251,0.1628,-0.0341,0.162,0.232
15.255,0.0476,-0.1344,0.199,0.245
15.26,-0.0217,-0.1499,0.1917,0.244
15.264,-0.0218,-0.1592,0.2214,0.274
15.27,0.0427,-0.1804,0.2365,0.301
15.274,0.1692,-0.1753,0.237,0.34
15.279,0.2789,-0.1678,0.2897,0.436
15.284,0.3553,-0.1531,0.3089,0.495
15.289,0.3865,-0.1216,0.273,0.489
15.294,0.3417,-0.071,0.2038,0.404
15.299,0.2447,-0.0515,0.1155,0.275
15.304,0.1626,-0.0319,0.0845,0.186
15.311,0.0591,-0.0291,0.0869,0.109
15.313,-0.0538,0.0072,0.1083,0.121
15.318,-0.1142,0.0243,0.1486,0.189
15.323,-0.0531,-0.0064,0.3249,0.329
15.328,0.0582,-0.0395,0.3886,0.395
15.333,-0.0243,-0.0152,0.1537,0.156
15.339,-0.2332,0.0497,-0.1499,0.282
15.343,-0.2677,0.069,-0.0275,0.278
15.347,-0.4291,0.1337,-0.0582,0.453
15.352,-1.0328,0.2962,-0.605,1.233
15.357,-0.7145,0.2481,0.0823,0.761
15.361,-0.6366,0.2095,0.3568,0.759
15.366,-0.2081,0.1135,0.5901,0.636
15.371,0.1433,-0.0278,0.484,0.505
15.376,0.3561,-0.0948,0.2015,0.42
15.381,0.5267,-0.176,0.0226,0.556
15.386,0.5165,-0.2378,-0.1317,0.584
15.391,0.3618,-0.3974,-0.1348,0.554
15.395,0.1034,-0.3057,-0.2187,0.39
15.4,-0.0563,-0.2595,-0.1902,0.327
15.405,-0.1799,-0.2993,-0.0664,0.355
15.41,-0.3082,-0.1312,-0.072,0.343
15.415,-0.3153,0.1131,-0.0568,0.34
15.42,-0.2448,0.3475,0.0144,0.425
15.428,-0.0849,0.5432,0.1108,0.561
15.429,0.1431,0.5666,0.2018,0.618
15.434,0.2773,0.4393,0.1778,0.549
15.439,0.2276,0.2692,0.0538,0.357
15.444,0.1113,0.1184,-0.0724,0.178
15.449,0.0094,-0.0035,-0.1416,0.142
15.454,-0.0305,-0.0702,-0.1277,0.149
15.459,-0.03,-0.089,-0.1287,0.159
15.463,-0.001,-0.1055,-0.1015,0.146
15.468,0.042,-0.1147,-0.0507,0.132
15.473,0.1278,-0.155,0.0166,0.202
15.478,0.0105,-0.1331,-0.1408,0.194
15.483,-0.011,-0.1232,-0.092,0.154
15.488,0.0034,-0.1037,0.1098,0.151
15.493,0.0248,-0.0867,0.3187,0.331
15.497,0.0221,-0.0363,0.382,0.384
15.502,0.0218,0.0044,0.3549,0.356
15.507,0.019,0.0498,0.2616,0.267
15.512,0.0282,0.076,0.2074,0.223
15.519,0.0016,0.1212,0.1945,0.229
15.521,-0.0321,0.1185,0.1822,0.22
15.526,-0.0993,0.1516,0.2707,0.326
15.531,-0.2022,0.1489,0.4051,0.477
15.536,-0.2095,0.2057,0.5114,0.59
15.542,-0.1833,0.2266,0.592,0.66
15.546,-0.0998,0.2235,0.6182,0.665
15.55,-0.0618,0.2443,0.5254,0.583
15.556,0.0051,0.2268,0.4524,0.506
15.56,0.0912,0.2093,0.4707,0.523
15.565,0.051,0.2229,0.3505,0.419
15.57,0.0231,0.2103,0.3599,0.417
15.575,-0.0235,0.2312,0.3575,0.426
15.579,-0.1177,0.2568,0.2954,0.409
15.584,-0.2595,0.28,0.2049,0.433
15.589,-0.3487,0.2768,0.1265,0.463
15.594,-0.3568,0.2259,0.0719,0.428
15.599,-0.3222,0.1415,0.1176,0.371
15.604,-0.3453,0.0525,0.029,0.35
15.609,-1.0399,0.1523,-0.9888,1.443
15.618,-0.4244,-0.0707,0.0576,0.434
15.618,-0.1802,-0.193,0.502,0.567
15.623,-0.1039,-0.2386,0.3094,0.404
15.628,0.1301,-0.3249,0.1028,0.365
15.633,0.3285,-0.3726,-0.0369,0.498
15.638,0.3957,-0.3868,-0.0672,0.557
15.642,0.5326,-0.3769,-0.0838,0.658
15.647,0.5693,-0.3693,-0.1556,0.696
15.652,0.4944,-0.3378,-0.2492,0.649
15.657,0.3032,-0.3181,-0.3333,0.552
15.662,0.1796,-0.2769,-0.2502,0.414
15.667,-0.0318,-0.2715,-0.2773,0.389
15.672,-0.4244,-0.1585,-0.6176,0.766
15.677,-0.1308,-0.1891,-0.009,0.23
15.681,-0.2585,-0.155,-0.1143,0.322
15.686,-0.4771,-0.0541,-0.6235,0.787
15.691,-0.3038,-0.0633,-0.4341,0.534
15.696,0.0532,-0.1561,0.1319,0.211
15.7,0.0128,-0.1221,-0.0779,0.145
15.705,-0.0395,-0.0475,-0.3854,0.39
15.71,0.0278,0.0008,-0.3269,0.328
15.715,0.0424,0.0275,-0.2115,0.217
15.72,0.0234,0.0709,-0.1851,0.2
15.732,-0.0388,0.1071,-0.1589,0.196
15.733,-0.0962,0.1671,-0.0733,0.206
15.735,-0.1609,0.1984,-0.0071,0.256
15.74,-0.1829,0.2129,0.0232,0.282
15.744,-0.1693,0.2178,0.0104,0.276
15.749,-0.1487,0.1844,-0.0167,0.237
15.754,-0.1426,0.151,-0.0197,0.209
15.759,-0.0841,0.1009,-0.049,0.14
15.764,-0.0448,0.0437,-0.0235,0.067
15.769,0.0231,0.0057,0.0452,0.051
15.773,0.1076,-0.0155,0.09,0.141
15.778,0.1586,-0.0558,0.1491,0.225
15.783,0.2264,-0.0889,0.1606,0.291
15.788,0.2775,-0.0694,0.1389,0.318
15.793,0.3312,-0.0857,0.127,0.365
15.797,0.3228,-0.0495,0.1104,0.345
15.803,0.3241,0.0035,0.1344,0.351
15.807,0.2824,0.066,0.1704,0.336
15.812,0.2288,0.1236,0.1826,0.318
15.819,0.1658,0.1643,0.1951,0.304
15.822,0.1172,0.2169,0.1601,0.294
15.829,0.0663,0.2169,0.1281,0.261
15.834,0.0347,0.2001,0.1398,0.247
15.837,-0.0302,0.1713,0.109,0.205
15.843,-0.1355,0.1449,0.0621,0.208
15.85,-0.709,0.1376,-0.7056,1.01
15.854,-0.3112,-0.0251,0.2425,0.395
34.367,-0.3106,-0.0252,0.2431,0.395
34.367,-0.2529,-0.1209,0.66,0.717
34.367,-0.0023,-0.0206,0.7278,0.728
34.368,-0.0272,0.1512,0.1528,0.217
34.368,-0.0164,0.2702,-0.2229,0.351
34.368,0.0422,0.2886,-0.1898,0.348
34.369,0.2082,0.2019,0.1801,0.341
34.369,0.0305,0.1488,-0.0135,0.152
34.369,-0.2278,0.1053,-0.3074,0.397
34.369,0.5179,-0.0217,1.198,1.305
34.37,-0.0541,0.2099,0.1791,0.281
34.37,-0.1997,0.2762,-0.3342,0.477
34.37,-0.393,0.2947,-0.2802,0.566
34.371,-1.4892,0.3297,-1.5342,2.163
34.371,-1.3726,0.1831,-0.9443,1.676
34.371,-0.4795,-0.1401,0.8909,1.021
34.372,-0.2973,-0.2573,1.1558,1.221
34.372,-0.2925,-0.1808,0.6075,0.698
34.372,-0.0443,-0.145,0.181,0.236
34.373,0.2726,-0.0566,-0.0159,0.279
34.373,0.5971,-0.1141,-0.0574,0.611
34.373,0.7616,-0.114,-0.032,0.771
34.373,0.8642,-0.0948,0.0863,0.874
34.374,0.7564,0.0511,0.0566,0.76
34.374,0.6684,0.0391,-0.0536,0.672
34.374,0.3828,-0.0111,-0.1899,0.427
34.375,0.0069,-0.0923,-0.2929,0.307
34.375,-0.2207,-0.1613,-0.3462,0.441
34.375,-0.3505,-0.2064,-0.2973,0.504
34.376,-0.3804,-0.2013,-0.2512,0.498
34.376,-0.3532,-0.1604,-0.2533,0.463
34.376,-0.2881,-0.1124,-0.2723,0.412
34.376,-0.2327,-0.0668,-0.2578,0.354
34.377,-0.1536,-0.0547,-0.2364,0.287
34.377,-0.0934,-0.0856,-0.227,0.26
34.377,0.0077,-0.1523,-0.1532,0.216
34.377,0.1092,-0.2165,-0.0652,0.251
34.378,0.2086,-0.2662,0.023,0.339
34.378,0.189,-0.2679,-0.1205,0.349
34.378,0.1505,-0.2147,-0.2231,0.344
34.379,0.0475,-0.1472,-0.2876,0.327
34.379,-0.058,-0.0583,-0.2973,0.309
34.379,-0.0872,0.0162,-0.1831,0.203
34.379,-0.2335,0.0594,-0.2982,0.383
34.38,-0.2362,0.0525,-0.2531,0.35
34.38,-0.1986,0.0336,-0.108,0.229
34.38,-0.1422,0.0768,0.0606,0.173
34.38,-0.079,0.1176,0.107,0.178
34.381,0.0173,0.12,0.0768,0.144
34.381,0.0966,0.1392,0.0826,0.188
34.381,0.1612,0.1272,0.1001,0.228
34.381,0.1681,0.1702,0.0841,0.254
34.382,0.1556,0.1868,0.0585,0.25
34.382,0.1407,0.1747,0.1022,0.247
34.382,0.0637,0.1364,0.1149,0.189
34.383,0.0083,0.1004,0.1205,0.157
34.383,-0.0234,0.0669,0.0975,0.121
34.383,-0.0766,0.0549,0.0053,0.094
34.383,-0.1107,0.0692,0.0183,0.132
34.384,-0.1356,0.0786,0.0002,0.157
34.384,-0.0793,0.0618,0.0633,0.119
34.384,-0.016,0.0425,0.0714,0.085
34.385,0.0618,0.0185,0.1014,0.12
34.385,0.1278,-0.0078,0.1651,0.209
34.385,0.1772,-0.0199,0.1479,0.232
34.385,0.1766,-0.0318,0.095,0.203
34.386,0.1642,-0.0342,0.0735,0.183
34.386,0.1018,-0.0318,0.0378,0.113
34.386,0.0275,-0.0127,-0.0026,0.03
34.386,-0.0372,0.0016,-0.0118,0.039
34.387,-0.1426,0.0589,-0.0589,0.165
34.387,-0.2313,0.1089,-0.1682,0.306
34.387,-0.2364,0.0919,-0.1341,0.287
34.388,-0.1866,0.0654,-0.0165,0.198
34.388,-0.1582,0.0222,-0.0447,0.166
34.388,-0.2802,0.0053,-0.3066,0.415
34.388,-0.2633,-0.0378,-0.2553,0.369
34.389,-0.2612,-0.0164,0.0657,0.27
34.389,-0.2499,0.0623,0.1093,0.28
34.389,-0.1499,0.0597,-0.024,0.163
34.389,-0.0116,-0.0552,-0.0043,0.057
34.39,0.0785,-0.145,0.0889,0.187
34.39,0.0589,-0.1035,0.1435,0.186
34.39,0.0325,-0.0434,0.0578,0.079
34.39,0.0185,-0.0288,0.0274,0.044
